time,seconds_elapsed,z,y,x
1742766302986670300,0.03767041015625,-1.1546096801757812,0.24008525907993317,-0.0849640816450119
1742766302996881000,0.047880859375,-1.1545238494873047,0.23751913011074066,-0.0827585756778717
1742766303011264300,0.06226416015625,2.0076904296875,0.2980194687843323,-0.4520471692085266
1742766303025647900,0.07664794921875,-2.178441047668457,0.10004788637161255,-0.454955518245697
1742766303040031500,0.091031494140625,2.379222869873047,-0.10343834012746811,0.5418305993080139
1742766303054414800,0.105414794921875,2.1482086181640625,0.1408912092447281,-0.7974806427955627
1742766303068798500,0.119798583984375,0.23899555206298828,-0.4688546061515808,-0.05040834844112396
1742766303083182000,0.13418212890625,0.6349287033081055,-0.1328611969947815,-0.9270316362380981
1742766303097565700,0.148565673828125,-2.0028696060180664,0.28149983286857605,0.16947753727436066
1742766303111949000,0.162948974609375,0.23493003845214844,0.33494243025779724,0.9448289275169373
1742766303126332700,0.177332763671875,0.5374889373779297,-0.0039392560720443726,-0.572229266166687
1742766303140716000,0.191716064453125,-1.2692136764526367,-0.6190115809440613,-0.08732181787490845
1742766303155099600,0.206099609375,0.9933738708496094,-0.4398806691169739,0.4420979917049408
1742766303169483300,0.220483154296875,-1.2211036682128906,-0.005689829587936401,-0.2531372010707855
1742766303183866600,0.23486669921875,-2.0575013160705566,0.20298996567726135,-0.3992955684661865
1742766303198250200,0.249250244140625,2.271862030029297,-0.7583993077278137,0.40094876289367676
1742766303212633900,0.2636337890625,0.049835205078125,0.0914665013551712,-0.5467857718467712
1742766303227017200,0.278017333984375,-0.6354570388793945,0.3045085072517395,-0.5052921772003174
1742766303241400800,0.29240087890625,0.8916826248168945,-0.6129967570304871,-0.8003988265991211
1742766303255784400,0.306784423828125,2.6245174407958984,-1.2226797342300415,0.5179138779640198
1742766303270167800,0.321167724609375,0.31755542755126953,-0.2553349733352661,-0.023914232850074768
1742766303284551400,0.335551513671875,1.1058731079101562,0.3665112257003784,-0.28399553894996643
1742766303298935000,0.34993505859375,-1.4325685501098633,-0.3573317527770996,0.12889325618743896
1742766303313318700,0.364318603515625,0.1845541000366211,-0.1321771740913391,0.4879071116447449
1742766303327702000,0.378701904296875,0.21215438842773438,0.5819529891014099,-0.19402220845222473
1742766303342085600,0.393085693359375,0.19539356231689453,-1.0654972791671753,0.22040115296840668
1742766303356469000,0.407468994140625,1.0638360977172852,-0.16141951084136963,-0.6322734355926514
1742766303370852600,0.4218525390625,-1.681356430053711,-0.1547580063343048,0.909381091594696
1742766303385236200,0.436236328125,1.2327470779418945,-0.014747381210327148,0.2735709547996521
1742766303399619600,0.45061962890625,2.032716751098633,0.003008902072906494,-0.03160220384597778
1742766303414003200,0.465003173828125,1.0343942642211914,-0.3188767433166504,-1.1773254871368408
1742766303428386800,0.47938671875,-0.9702472686767578,-0.5244207382202148,1.0840741395950317
1742766303442770400,0.4937705078125,-1.194880485534668,1.0059458017349243,-0.9213740825653076
1742766303457153800,0.50815380859375,-3.6127524375915527,-1.0138391256332397,0.10306408256292343
1742766303471537400,0.522537353515625,2.096287727355957,-0.09652616828680038,0.5268925428390503
1742766303485920800,0.536920654296875,-3.277757167816162,0.01999211311340332,-0.8251179456710815
1742766303500304400,0.551304443359375,-0.6015291213989258,0.2917925715446472,0.17790061235427856
1742766303514688000,0.56568798828125,1.6105852127075195,-0.1705414056777954,-0.35154157876968384
1742766303529071600,0.580071533203125,0.055853843688964844,-0.630776047706604,0.012507542967796326
1742766303543455000,0.594455078125,0.11531448364257812,-0.14405936002731323,0.5585408210754395
1742766303557838600,0.608838623046875,-0.5216913223266602,0.8323007225990295,-0.17157591879367828
1742766303572222200,0.62322216796875,-0.8925981521606445,-1.2847254276275635,-0.5344975590705872
1742766303586605600,0.63760546875,0.9825572967529297,0.055274829268455505,0.3314797878265381
1742766303600989200,0.6519892578125,-4.403690814971924,0.6633656024932861,-0.31553882360458374
1742766303615372500,0.66637255859375,-0.8484973907470703,-0.292731910943985,0.5282742977142334
1742766303629756200,0.680756103515625,1.2080907821655273,-0.6289138793945312,-0.9042943120002747
1742766303644139800,0.695139892578125,-1.6556215286254883,-0.572636067867279,-0.6612663865089417
1742766303658523400,0.7095234375,0.2830533981323242,-0.1349569857120514,0.017446979880332947
1742766303672906800,0.72390673828125,-1.9011521339416504,0.3641319274902344,-0.5348114967346191
1742766303687290400,0.738290283203125,0.4445934295654297,-1.081939458847046,0.0155438631772995
1742766303701673700,0.752673828125,1.3265094757080078,0.5595247745513916,0.2410571426153183
1742766303716057300,0.767057373046875,-1.236525535583496,0.24370421469211578,-1.0381580591201782
1742766303730441000,0.78144091796875,-1.984534740447998,-0.9266896843910217,-0.26085251569747925
1742766303744824300,0.79582421875,2.9129467010498047,-0.2731565237045288,-0.007437065243721008
1742766303759208000,0.8102080078125,-2.0948386192321777,-0.5460736751556396,-1.186639428138733
1742766303773591600,0.824591552734375,-0.8068742752075195,0.2454334944486618,0.8231199383735657
1742766303787975200,0.83897509765625,-1.501638412475586,0.8427515029907227,-0.0817139595746994
1742766303802358500,0.853358642578125,-0.08414173126220703,-0.7394397854804993,-0.03142516314983368
1742766303816742100,0.8677421875,1.3640251159667969,0.23044754564762115,0.1294049173593521
1742766303831125500,0.88212548828125,-3.487443447113037,0.7913303971290588,-0.3237946331501007
1742766303845509000,0.896509033203125,-1.1159782409667969,-0.9737908244132996,0.9468358755111694
1742766303859892700,0.910892822265625,-0.9334802627563477,0.8127188086509705,-0.015890046954154968
1742766303874276000,0.925276123046875,-1.8710694313049316,-0.7626477479934692,0.25579795241355896
1742766303888659700,0.93965966796875,-0.9939107894897461,-0.13197508454322815,0.5926673412322998
1742766303903043300,0.954043212890625,-2.902336597442627,-0.05113452672958374,0.37421801686286926
1742766303917427000,0.968427001953125,0.9879245758056641,-0.5931062698364258,0.6027359962463379
1742766303931810300,0.982810302734375,1.9573183059692383,-0.10736613720655441,-0.1575085073709488
1742766303946194000,0.99719384765625,-1.3860044479370117,-0.46165865659713745,-0.429096519947052
1742766303960577300,1.011577392578125,0.9567928314208984,-0.764302134513855,1.1396032571792603
1742766303974961000,1.0259609375,1.0582218170166016,0.37120819091796875,0.6544088125228882
1742766303989344500,1.040344482421875,1.7324934005737305,-0.5872758626937866,-0.7865039110183716
1742766304003728000,1.054727783203125,1.9233894348144531,-0.5218684077262878,-0.6408735513687134
1742766304018111500,1.069111572265625,0.6568679809570312,-0.142516627907753,0.189662903547287
1742766304032495000,1.0834951171875,0.4543333053588867,0.12041299045085907,-0.795976459980011
1742766304046878700,1.097878662109375,-1.4196929931640625,0.1956160068511963,0.649215817451477
1742766304061262000,1.112261962890625,-1.301431655883789,0.07807210087776184,-0.28413426876068115
1742766304075645700,1.126645751953125,1.1496667861938477,-0.4939471483230591,0.39602726697921753
1742766304090029000,1.141029052734375,0.29019737243652344,0.48170095682144165,0.6730855703353882
1742766304104412700,1.15541259765625,0.2791872024536133,0.7468851804733276,-0.7192299962043762
1742766304118796300,1.16979638671875,1.2607288360595703,-1.1924526691436768,0.14682377874851227
1742766304133180000,1.184179931640625,0.3984642028808594,0.2185581922531128,0.7646887898445129
1742766304147563300,1.198563232421875,-2.1347174644470215,0.6558020710945129,0.26000916957855225
1742766304161947000,1.21294677734375,0.2922344207763672,-0.30630433559417725,0.9101555347442627
1742766304176330200,1.227330322265625,-1.5544071197509766,-0.03862270712852478,-0.9505136609077454
1742766304190713900,1.2417138671875,1.071843147277832,0.2236354649066925,0.167820543050766
1742766304205097500,1.256097412109375,2.15451717376709,-1.3980352878570557,0.3867812752723694
1742766304219480800,1.270480712890625,-1.0657711029052734,0.20616096258163452,-0.48117080330848694
1742766304233864400,1.284864501953125,-2.317941188812256,-0.654250979423523,0.9168480038642883
1742766304248248000,1.299248046875,2.035738945007324,-0.2854735851287842,-0.2638903558254242
1742766304262631400,1.31363134765625,-0.9206113815307617,0.8773142099380493,-0.9574424028396606
1742766304277015000,1.32801513671875,0.22014617919921875,-0.5592989921569824,-0.31140750646591187
1742766304291398700,1.342398681640625,3.531397819519043,-0.9191296100616455,0.8801170587539673
1742766304305782000,1.356781982421875,-2.173952102661133,0.31758609414100647,-0.4283615052700043
1742766304320165600,1.37116552734375,-0.229583740234375,0.4346516728401184,0.0036254525184631348
1742766304334549200,1.38554931640625,1.8489980697631836,-1.1188009977340698,0.1581346094608307
1742766304348932600,1.3999326171875,1.0579814910888672,0.34786611795425415,0.10556749999523163
1742766304363316200,1.414316162109375,-0.5337944030761719,0.6271878480911255,0.09371256083250046
1742766304377699800,1.428699951171875,1.3709039688110352,-0.35498473048210144,0.8062086701393127
1742766304392083200,1.443083251953125,0.5144443511962891,-0.31593459844589233,0.045811086893081665
1742766304406466800,1.457466796875,1.2667913436889648,-0.10219253599643707,-0.31717556715011597
1742766304420850400,1.471850341796875,-0.47910022735595703,-0.37102705240249634,-0.21245092153549194
1742766304435233800,1.48623388671875,-0.3117809295654297,0.49419718980789185,-0.24281278252601624
1742766304449617400,1.500617431640625,0.15239810943603516,-0.3013458847999573,-0.7710363864898682
1742766304464001000,1.5150009765625,3.632375717163086,-0.3249039649963379,0.467754602432251
1742766304478384400,1.52938427734375,-0.09993743896484375,0.016014695167541504,0.08361831307411194
1742766304492768000,1.54376806640625,-2.3143553733825684,0.5843374729156494,-1.8157718181610107
1742766304507151600,1.558151611328125,1.8090505599975586,-1.7473657131195068,0.9758957624435425
1742766304521535000,1.572534912109375,1.8350839614868164,0.5299187302589417,0.400332510471344
1742766304535918600,1.586918701171875,-1.7568225860595703,-0.5359771847724915,-1.1150850057601929
1742766304550302200,1.60130224609375,1.9898662567138672,-0.4365205466747284,-0.18116210401058197
1742766304564685600,1.615685546875,1.803095817565918,-0.6110159158706665,1.0345832109451294
1742766304579069200,1.630069091796875,-0.9386396408081055,0.035908669233322144,0.6227689981460571
1742766304593452800,1.644452880859375,0.7199230194091797,-0.03752443194389343,-0.3840441107749939
1742766304607836200,1.658836181640625,-0.20151519775390625,0.10315854847431183,0.14077462255954742
1742766304622219800,1.6732197265625,-0.12999820709228516,-0.06595716625452042,0.3383440375328064
1742766304636603400,1.687603271484375,-2.3004813194274902,0.46486860513687134,-0.9193034172058105
1742766304650986800,1.70198681640625,-2.666821002960205,0.0938619077205658,0.6790646314620972
1742766304665370400,1.716370361328125,-1.036128044128418,-0.27740609645843506,-0.4343779385089874
1742766304679754000,1.73075390625,0.23148727416992188,-0.8550839424133301,0.5082970857620239
1742766304694137300,1.745137451171875,0.501429557800293,-0.1931391954421997,-0.13382574915885925
1742766304708521000,1.75952099609375,-2.1227293014526367,0.47091802954673767,-0.19925718009471893
1742766304722904600,1.773904541015625,1.1464309692382812,-0.8534414768218994,-0.3846322298049927
1742766304737288000,1.788287841796875,0.6750555038452148,0.3612021505832672,0.3942321240901947
1742766304751671600,1.802671630859375,0.49947357177734375,0.3746436834335327,-0.7328923940658569
1742766304766055200,1.81705517578125,-0.6367921829223633,0.01788461208343506,-0.8712406158447266
1742766304780438500,1.8314384765625,1.317617416381836,-0.4903029203414917,0.35645169019699097
1742766304794822100,1.845822265625,0.12892913818359375,-0.4992484450340271,-0.019009321928024292
1742766304809205500,1.86020556640625,-0.028076171875,0.41421645879745483,-0.7746544480323792
1742766304823589000,1.874589111328125,-1.0584697723388672,-0.34221360087394714,0.2446725219488144
1742766304837972700,1.88897265625,0.5219240188598633,-0.06379334628582001,0.6264877915382385
1742766304852356400,1.9033564453125,-1.5728645324707031,-0.18166477978229523,0.7151356935501099
1742766304866739700,1.91773974609375,-0.07847785949707031,0.23719029128551483,-0.6739921569824219
1742766304881123300,1.932123291015625,-0.989079475402832,-0.5691589117050171,-0.29398709535598755
1742766304895507000,1.9465068359375,0.3046140670776367,-0.4985763430595398,0.3716198801994324
1742766304909890300,1.960890380859375,-1.250046730041504,0.44831734895706177,-0.20357294380664825
1742766304924274000,1.97527392578125,0.08851242065429688,-0.2514134645462036,1.054112195968628
1742766304938657300,1.9896572265625,-0.05379199981689453,0.13750161230564117,-1.3566244840621948
1742766304953041000,2.004041015625,-2.036780834197998,-0.25765299797058105,0.9490804672241211
1742766304967424500,2.018424560546875,0.3627357482910156,-0.1744212508201599,-0.24566194415092468
1742766304981807900,2.032807861328125,-0.3934326171875,0.14690330624580383,-0.9949996471405029
1742766304996191500,2.04719140625,-1.5498113632202148,-0.33461058139801025,0.009453490376472473
1742766305010575000,2.0615751953125,1.1567153930664062,-0.2182893604040146,-0.03848999738693237
1742766305024958700,2.075958740234375,-1.4390268325805664,-0.1691846251487732,-0.32207685708999634
1742766305039342000,2.090342041015625,-2.5282583236694336,0.12730541825294495,-1.4143999814987183
1742766305053725700,2.1047255859375,1.6801977157592773,-0.5218386054039001,-0.15678946673870087
1742766305068109000,2.119109130859375,0.6924991607666016,-0.256716251373291,0.3418920040130615
1742766305082492700,2.13349267578125,-1.973254680633545,0.42672353982925415,-0.4387829601764679
1742766305096876300,2.147876220703125,-1.7502546310424805,0.18759708106517792,-0.580773651599884
1742766305111259600,2.162259765625,2.063509941101074,-0.3042260706424713,-0.1834409385919571
1742766305125643300,2.176643310546875,0.46993255615234375,0.0863443985581398,-0.06829562783241272
1742766305140027000,2.19102685546875,-2.481968402862549,-0.11104976385831833,-0.26799678802490234
1742766305154410200,2.20541015625,-1.1693525314331055,-0.08306799829006195,-0.1659676432609558
1742766305168793900,2.2197939453125,-0.6705331802368164,-0.5217896103858948,-0.16095347702503204
1742766305183177500,2.234177490234375,0.7347707748413086,0.21135061979293823,0.16412733495235443
1742766305197560800,2.248560791015625,1.073221206665039,0.16754838824272156,-0.014157101511955261
1742766305211944400,2.2629443359375,-0.5359106063842773,-0.3766251802444458,-0.7404782772064209
1742766305226328000,2.277328125,-0.3112316131591797,-0.300405353307724,0.6353116631507874
1742766305240711400,2.29171142578125,0.36121082305908203,0.387753963470459,-0.45838189125061035
1742766305255095000,2.306094970703125,-1.042078971862793,-0.7224743962287903,0.1975443810224533
1742766305269478700,2.320478759765625,-0.5266914367675781,0.07676005363464355,-0.5313022136688232
1742766305283862000,2.334862060546875,-1.7007217407226562,0.08502601087093353,0.027132853865623474
1742766305298245600,2.34924560546875,0.7651863098144531,0.23659473657608032,-0.31898149847984314
1742766305312629000,2.36362890625,-0.9663610458374023,-0.48124921321868896,-0.9903044700622559
1742766305327012600,2.3780126953125,-0.14317989349365234,-0.5181823372840881,0.5398786067962646
1742766305341396200,2.392396240234375,-0.9216079711914062,0.22009500861167908,-0.4088202118873596
1742766305355779800,2.40677978515625,-0.41164302825927734,0.04566945880651474,-0.516619086265564
1742766305370163200,2.4211630859375,-1.7060251235961914,-0.2798815965652466,-0.10168212652206421
1742766305384546800,2.435546875,1.1051836013793945,-0.11319008469581604,0.7006236910820007
1742766305398930400,2.449930419921875,1.8044872283935547,-0.10082300007343292,0.37547051906585693
1742766305413313800,2.464313720703125,0.6720590591430664,0.028310097754001617,0.7049704194068909
1742766305427697400,2.478697509765625,-1.3346948623657227,0.10510261356830597,-0.6420100927352905
1742766305442080800,2.493080810546875,0.7954387664794922,-0.088419109582901,0.05746904015541077
1742766305456464400,2.50746435546875,2.275228500366211,0.41178780794143677,-0.02299271523952484
1742766305470848000,2.521847900390625,0.3743457794189453,0.2704634666442871,-0.016326218843460083
1742766305485231400,2.5362314453125,0.7876367568969727,0.15480870008468628,-0.45845985412597656
1742766305499615000,2.550614990234375,-1.6861066818237305,-0.12167558073997498,0.43032777309417725
1742766305513998600,2.56499853515625,-0.42278003692626953,0.5664451122283936,-1.5334686040878296
1742766305528382200,2.57938232421875,-1.372105598449707,-0.5690444707870483,0.1327214241027832
1742766305542765600,2.593765625,-0.35779666900634766,-0.8539538383483887,-0.4139721989631653
1742766305557149200,2.608149169921875,-2.5489683151245117,0.04142508655786514,-0.844422459602356
1742766305571532500,2.622532470703125,-0.30962657928466797,-0.04744461178779602,-0.27854329347610474
1742766305585916200,2.636916259765625,0.8599233627319336,-0.6777989864349365,-0.14304760098457336
1742766305600299800,2.6512998046875,2.3640127182006836,-0.6012135744094849,0.5499958992004395
1742766305614683100,2.66568310546875,2.9639949798583984,0.11153718084096909,-0.013555243611335754
1742766305629066800,2.680066650390625,3.423403739929199,0.5875817537307739,-0.40861135721206665
1742766305643450400,2.694450439453125,-0.5712137222290039,-0.38377952575683594,0.8111552000045776
1742766305657833700,2.708833740234375,1.875589370727539,-0.030706457793712616,-0.06760573387145996
1742766305672217300,2.72321728515625,-0.6265535354614258,0.45963209867477417,0.7633824944496155
1742766305686601000,2.73760107421875,-0.602015495300293,0.4018784165382385,0.19341042637825012
1742766305700984300,2.751984375,-3.8530325889587402,-0.6941186785697937,-0.7401759624481201
1742766305715368000,2.766367919921875,-2.7447667121887207,0.02469494193792343,-0.5067380666732788
1742766305729751600,2.78075146484375,-0.9705123901367188,-0.44923004508018494,0.47284170985221863
1742766305744135000,2.795135009765625,0.7111082077026367,0.4153940975666046,0.43535298109054565
1742766305758518500,2.8095185546875,1.648167610168457,0.14895527064800262,-0.8711812496185303
1742766305772902100,2.823902099609375,-0.4120512008666992,-0.2013051062822342,1.2868486642837524
1742766305787285500,2.838285400390625,-0.16775226593017578,0.3367486298084259,-0.736655592918396
1742766305801669000,2.852669189453125,-1.424332618713379,-0.5715550184249878,0.06628955900669098
1742766305816052500,2.867052490234375,1.7915735244750977,-0.409708172082901,-0.3522963523864746
1742766305830436000,2.88143603515625,1.093684196472168,-0.1491132229566574,-0.24010802805423737
1742766305844819700,2.89581982421875,1.404973030090332,0.4468846321105957,-1.3525978326797485
1742766305859203000,2.910203125,2.7750062942504883,-0.7158648371696472,-0.6520524024963379
1742766305873586700,2.924586669921875,2.8195247650146484,-0.14724956452846527,0.824445903301239
1742766305887970300,2.93897021484375,-0.31099891662597656,0.11839510500431061,-0.4671638607978821
1742766305902353700,2.953353759765625,0.17714786529541016,0.7604784369468689,-0.8298007845878601
1742766305916737300,2.9677373046875,-2.3103723526000977,-0.21321514248847961,-0.038428664207458496
1742766305931121000,2.982120849609375,-0.16703319549560547,0.10589686781167984,0.2220010906457901
1742766305945504300,2.996504150390625,-3.6052803993225098,0.09639293700456619,-0.06394742429256439
1742766305959888000,3.010887939453125,-0.6255264282226562,-0.40477287769317627,0.4175645709037781
1742766305974271500,3.025271484375,-2.3195815086364746,-0.45476940274238586,-0.7230339050292969
1742766305988654800,3.03965478515625,-0.5694494247436523,0.13228073716163635,0.439217209815979
1742766306003038500,3.05403857421875,0.5707225799560547,0.3653215765953064,0.3975706100463867
1742766306017422000,3.068422119140625,0.9304542541503906,0.14020010828971863,0.21792879700660706
1742766306031805400,3.082805419921875,1.6802501678466797,-0.3031110465526581,-0.4838377833366394
1742766306046189000,3.09718896484375,-1.8764910697937012,0.23449745774269104,0.09755021333694458
1742766306060572700,3.11157275390625,-1.6343717575073242,-0.1845974326133728,-0.19865751266479492
1742766306074956000,3.1259560546875,-0.844273567199707,0.07003974914550781,-0.07159936428070068
1742766306089339600,3.140339599609375,-0.554203987121582,-0.36018726229667664,-0.1491575390100479
1742766306103723300,3.15472314453125,-0.32943248748779297,-0.32535290718078613,-0.5931222438812256
1742766306118106600,3.169106689453125,-0.024770736694335938,0.47280412912368774,-0.1942267268896103
1742766306132490200,3.183490234375,2.368220329284668,-0.9159483313560486,-0.3174484968185425
1742766306146873900,3.197873779296875,0.7744474411010742,0.13839322328567505,-0.972863495349884
1742766306161257200,3.21225732421875,1.8986711502075195,-0.025591790676116943,0.9032490849494934
1742766306175640800,3.226640869140625,2.6270618438720703,0.755196213722229,-0.10901941359043121
1742766306190024400,3.2410244140625,-1.1502389907836914,-0.21471746265888214,-0.6485480666160583
1742766306204407800,3.25540771484375,4.335654258728027,-0.4707833528518677,0.2786570191383362
1742766306218791400,3.26979150390625,0.3865060806274414,0.3695290684700012,-0.08732989430427551
1742766306233174800,3.2841748046875,1.1708745956420898,-0.06935371458530426,0.7099713683128357
1742766306247558400,3.298558349609375,0.4790973663330078,-0.41045090556144714,-1.0328168869018555
1742766306261942000,3.31294189453125,-4.684197902679443,0.04874565452337265,0.8274483680725098
1742766306276325400,3.327325439453125,-0.4589090347290039,0.3483941853046417,0.21481524407863617
1742766306290709000,3.341708984375,2.294363021850586,-0.28040647506713867,0.5976735353469849
1742766306305092600,3.356092529296875,-1.8070077896118164,-0.14454218745231628,-0.010734349489212036
1742766306319476000,3.37047607421875,2.3537282943725586,-0.4648185968399048,-0.08247491717338562
1742766306333859600,3.384859619140625,0.2813148498535156,0.7615603804588318,-0.06145720183849335
1742766306348243200,3.3992431640625,-2.0951685905456543,-0.4744856357574463,0.7708660960197449
1742766306362626600,3.41362646484375,-0.644474983215332,-0.629277765750885,-1.1833984851837158
1742766306377010200,3.42801025390625,-0.9257917404174805,-0.12164627015590668,-0.1623263657093048
1742766306391393800,3.442393798828125,0.10031890869140625,0.48959842324256897,0.3120500445365906
1742766306405777200,3.456777099609375,1.1900196075439453,0.04987514764070511,-1.2275145053863525
1742766306420160800,3.471160888671875,2.1332406997680664,-0.4465816020965576,0.23757877945899963
1742766306434544400,3.48554443359375,0.18202590942382812,0.4340791404247284,-0.20933368802070618
1742766306448927700,3.499927734375,-1.5976057052612305,0.7563331127166748,-1.1370123624801636
1742766306463311400,3.514311279296875,-2.81089448928833,-0.36816322803497314,-0.07163721323013306
1742766306477694700,3.52869482421875,-0.6657638549804688,-0.04691174626350403,-0.6157646179199219
1742766306492078300,3.543078369140625,-1.2090234756469727,0.14872068166732788,0.4706519842147827
1742766306506462000,3.5574619140625,-0.681483268737793,0.29511022567749023,-0.08947756886482239
1742766306520845300,3.57184521484375,-0.7045679092407227,-0.18269559741020203,0.0903010219335556
1742766306535229000,3.58622900390625,1.3495512008666992,0.0017312541604042053,0.41762855648994446
1742766306549612500,3.600612548828125,-1.8708195686340332,0.5498833656311035,-0.2867435812950134
1742766306563996000,3.614995849609375,0.10103321075439453,-0.19811929762363434,0.6221053600311279
1742766306578379500,3.629379638671875,0.1382150650024414,-0.1856919229030609,-1.010164737701416
1742766306592763100,3.64376318359375,-0.4911212921142578,0.01970619708299637,0.19977839291095734
1742766306607146500,3.658146484375,0.4251680374145508,0.15488609671592712,0.22238633036613464
1742766306621530000,3.672530029296875,-0.82513427734375,-0.08588995039463043,0.333660364151001
1742766306635913700,3.686913818359375,-0.015534400939941406,-0.4752650260925293,0.4928509294986725
1742766306650297000,3.701297119140625,-0.44137096405029297,-0.5708562731742859,-0.07289215922355652
1742766306664680700,3.7156806640625,0.3690814971923828,0.002295486629009247,-0.003632068634033203
1742766306679064300,3.730064208984375,-0.21147632598876953,-0.1259012073278427,0.08477431535720825
1742766306693447700,3.74444775390625,0.4771432876586914,-0.19791504740715027,0.4882359802722931
1742766306707831300,3.758831298828125,0.3266115188598633,-0.24106162786483765,-0.24024736881256104
1742766306722215000,3.77321484375,0.112396240234375,0.4467748999595642,-0.546794056892395
1742766306736598300,3.787598388671875,-1.7095623016357422,0.1229589506983757,-0.06868195533752441
1742766306750982000,3.80198193359375,0.6665191650390625,-0.6019637584686279,0.8760308027267456
1742766306765365200,3.816365234375,0.4356088638305664,0.04871421307325363,-0.5865960717201233
1742766306779748900,3.830748779296875,-3.261474132537842,0.6848187446594238,-0.27165818214416504
1742766306794132500,3.845132568359375,-0.5217113494873047,-0.44410422444343567,-0.10617861151695251
1742766306808515800,3.859515869140625,1.0844144821166992,-0.485446959733963,0.3642386794090271
1742766306822899500,3.8738994140625,-1.7008399963378906,0.22865530848503113,0.42533010244369507
1742766306837283000,3.888282958984375,-0.5602455139160156,0.6340388655662537,-0.04776439070701599
1742766306851666700,3.902666748046875,0.5054512023925781,-0.567960262298584,0.28324031829833984
1742766306866050000,3.917050048828125,1.4265623092651367,0.19489702582359314,0.7622941732406616
1742766306880433700,3.93143359375,1.5367584228515625,0.3467637598514557,-0.9535925388336182
1742766306894817000,3.945817138671875,0.3468170166015625,0.12106812745332718,0.5873757600784302
1742766306909200600,3.96020068359375,-3.620969772338867,-0.32657119631767273,-0.43368443846702576
1742766306923584300,3.974584228515625,-0.2619924545288086,0.3351290822029114,-0.14525580406188965
1742766306937967600,3.988967529296875,3.0253095626831055,-0.6930851936340332,-0.04719629883766174
1742766306952351200,4.003351318359375,-2.3474316596984863,0.61353600025177,0.32335278391838074
1742766306966734800,4.01773486328125,3.07232666015625,-0.2149564027786255,-0.1346249282360077
1742766306981118200,4.0321181640625,2.6808738708496094,-0.5500564575195312,-0.2669118642807007
1742766306995501800,4.046501708984375,-0.5625629425048828,0.5969622135162354,-0.5215860605239868
1742766307009885400,4.060885498046875,-2.5269227027893066,-0.02351900190114975,0.03379391133785248
1742766307024268800,4.075268798828125,-1.0470600128173828,-0.3472590148448944,0.36592572927474976
1742766307038652400,4.08965234375,-7.199939727783203,-0.5767433643341064,0.3702322244644165
1742766307053035800,4.104035888671875,0.33086204528808594,0.8417608141899109,-0.6644368171691895
1742766307067419400,4.11841943359375,0.5974235534667969,-0.8478754162788391,-0.05582517385482788
1742766307081803000,4.132802978515625,0.26554393768310547,-0.5200585126876831,0.26677611470222473
1742766307096186600,4.1471865234375,1.196669578552246,-0.03887072950601578,0.0756428986787796
1742766307110570000,4.161570068359375,-0.7990779876708984,0.5764244794845581,-0.16411849856376648
1742766307124953600,4.17595361328125,0.5405397415161133,-0.08408340811729431,-0.7069345712661743
1742766307139337000,4.1903369140625,-0.9475212097167969,-0.21585842967033386,1.019473910331726
1742766307153720600,4.204720458984375,-1.3688230514526367,0.5215928554534912,-0.3623310625553131
1742766307168104200,4.219104248046875,0.9352350234985352,0.21282094717025757,0.05059002339839935
1742766307182487600,4.233487548828125,-0.8550233840942383,-0.352561891078949,0.42336907982826233
1742766307196871200,4.24787109375,-0.6742763519287109,-0.6718191504478455,0.23308539390563965
1742766307211254800,4.2622548828125,0.6601066589355469,0.4066034257411957,0.486467570066452
1742766307225638100,4.27663818359375,-0.6917133331298828,0.21233642101287842,0.6290492415428162
1742766307240021800,4.291021728515625,0.6281948089599609,-0.39129337668418884,-0.32963240146636963
1742766307254405400,4.3054052734375,1.3646516799926758,0.14840614795684814,-0.21296045184135437
1742766307268788700,4.319788818359375,1.0923118591308594,0.532574474811554,0.6158807873725891
1742766307283172400,4.33417236328125,0.2165060043334961,0.3859296441078186,-1.249041199684143
1742766307297555700,4.3485556640625,0.4349851608276367,-1.0791157484054565,-0.6220047473907471
1742766307311939300,4.362939208984375,-2.8005614280700684,0.2679668664932251,-0.2146899402141571
1742766307326323000,4.377322998046875,-1.7891769409179688,1.23848295211792,-1.1657854318618774
1742766307340706300,4.391706298828125,-1.005915641784668,-1.3831839561462402,-0.19488662481307983
1742766307355090000,4.40608984375,2.4769229888916016,-0.4590770900249481,0.281934916973114
1742766307369473500,4.4204736328125,0.4479866027832031,0.28969934582710266,-0.0918002724647522
1742766307383857000,4.43485693359375,-3.697415828704834,0.3246482014656067,0.018686622381210327
1742766307398240500,4.449240478515625,-0.6484050750732422,-0.21671995520591736,-0.693895697593689
1742766307412624100,4.4636240234375,2.2893266677856445,-0.3705559968948364,1.1085646152496338
1742766307427007500,4.478007568359375,1.0143795013427734,0.438609778881073,0.8246122598648071
1742766307441391000,4.49239111328125,1.4280366897583008,0.04611191153526306,-0.8927358388900757
1742766307455774700,4.506774658203125,-0.4175996780395508,-0.6574279069900513,0.7099237442016602
1742766307470158000,4.521157958984375,-1.4527006149291992,-0.4536089599132538,0.1963222771883011
1742766307484541700,4.535541748046875,0.3454313278198242,0.081209197640419,0.8093394041061401
1742766307498925300,4.54992529296875,6.367515563964844,-0.8089304566383362,1.322694182395935
1742766307513308700,4.56430859375,-1.010025978088379,0.36829596757888794,-1.3076355457305908
1742766307527692300,4.5786923828125,1.585688591003418,-0.24071663618087769,1.1019041538238525
1742766307542076000,4.593075927734375,2.8517913818359375,-0.1537928283214569,-0.021552443504333496
1742766307556459300,4.607459228515625,-0.36610889434814453,0.06966710835695267,0.02965383231639862
1742766307570843000,4.6218427734375,-1.8064088821411133,0.05763700604438782,-0.04851877689361572
1742766307585226200,4.636226318359375,0.7391223907470703,-0.43055668473243713,-0.3724409341812134
1742766307599609900,4.65060986328125,1.4681987762451172,-0.06965435296297073,-0.157681405544281
1742766307613993500,4.664993408203125,-1.9493446350097656,0.20162132382392883,-0.8192238211631775
1742766307628376800,4.679376953125,2.985844612121582,-0.5437665581703186,0.20204372704029083
1742766307642760400,4.693760498046875,0.25118350982666016,-0.07628758996725082,-0.3057507574558258
1742766307657144000,4.70814404296875,-2.0374417304992676,0.9494901299476624,-1.0795018672943115
1742766307671527400,4.72252734375,0.43562793731689453,-0.6678577065467834,-0.023432374000549316
1742766307685911000,4.7369111328125,1.498612403869629,0.2733891010284424,0.9006633162498474
1742766307700294700,4.751294677734375,-1.0968399047851562,0.4625076353549957,-0.4601882994174957
1742766307714678000,4.765677978515625,0.6714496612548828,0.06463852524757385,0.0317387580871582
1742766307729061600,4.7800615234375,-0.6790914535522461,0.3725450932979584,-0.41024908423423767
1742766307743445200,4.7944453125,-5.203732967376709,-0.13394953310489655,0.3911838233470917
1742766307757828600,4.80882861328125,-0.2917146682739258,-0.7559957504272461,0.21805739402770996
1742766307772212200,4.823212158203125,1.9443378448486328,-0.3908827304840088,0.27998125553131104
1742766307786595800,4.837595947265625,2.172931671142578,-0.5036104917526245,0.011620104312896729
1742766307800979200,4.851979248046875,0.5427350997924805,-0.0010890886187553406,0.7587300539016724
1742766307815362800,4.86636279296875,-0.007609367370605469,0.5209751725196838,-0.18954414129257202
1742766307829746200,4.88074609375,-0.4014425277709961,-0.1976877748966217,0.5098735094070435
1742766307844129800,4.8951298828125,-0.5852937698364258,-0.2862307131290436,-0.8519320487976074
1742766307858513400,4.909513427734375,0.0069866180419921875,-0.10039626806974411,-0.725023090839386
1742766307872896800,4.923896728515625,0.08830738067626953,-0.5227143168449402,-0.7017261385917664
1742766307887280400,4.9382802734375,1.0369958877563477,-0.10011717677116394,-0.8845757842063904
1742766307901664000,4.9526640625,2.472926139831543,-0.34678420424461365,-0.2414683997631073
1742766307916047400,4.96704736328125,0.059040069580078125,-0.439936101436615,-0.01440766453742981
1742766307930431000,4.981430908203125,-0.8987407684326172,0.9134302735328674,-1.2892168760299683
1742766307944814600,4.995814697265625,-2.0026564598083496,-0.16440513730049133,-1.2077330350875854
1742766307959198000,5.010197998046875,0.8516387939453125,-0.6001116633415222,0.18371029198169708
1742766307973581600,5.02458154296875,2.4814605712890625,-0.00677558034658432,0.2006732076406479
1742766307987965000,5.03896484375,-0.8086185455322266,0.5762022733688354,-0.6491227149963379
1742766308002348500,5.0533486328125,-0.9298210144042969,0.1136254370212555,-0.2157018482685089
1742766308016732200,5.067732177734375,0.5488109588623047,0.12249524146318436,0.4396500289440155
1742766308031115500,5.082115478515625,-1.0023412704467773,-0.4164353013038635,0.6456061601638794
1742766308045499100,5.0964990234375,-0.9978389739990234,0.41148555278778076,0.409196138381958
1742766308059882800,5.1108828125,-0.3702116012573242,-0.008171990513801575,-0.2705383002758026
1742766308074266000,5.12526611328125,-0.5045757293701172,0.21670657396316528,0.12410953640937805
1742766308088649700,5.139649658203125,-0.02885150909423828,0.555181086063385,0.5927190184593201
1742766308103033300,5.154033447265625,-0.08804988861083984,0.28341731429100037,0.32147106528282166
1742766308117416700,5.168416748046875,-0.8570919036865234,-0.1307123601436615,0.2741488218307495
1742766308131800300,5.18280029296875,0.6467666625976562,-0.9116107225418091,-0.3993099331855774
1742766308146184000,5.197183837890625,0.11626243591308594,0.17361871898174286,-0.9845021367073059
1742766308160567300,5.2115673828125,-1.6811752319335938,-0.5379155278205872,0.42271673679351807
1742766308174951000,5.225950927734375,1.1771955490112305,-0.13059186935424805,0.006479978561401367
1742766308189334500,5.24033447265625,1.445021629333496,-0.09538872539997101,-0.5010648965835571
1742766308203718000,5.2547177734375,2.595012664794922,-0.31017404794692993,-0.3876020908355713
1742766308218101500,5.2691015625,0.6606473922729492,-0.05492798238992691,-0.6081599593162537
1742766308232485000,5.283485107421875,-1.0798320770263672,0.06140466779470444,-0.09106087684631348
1742766308246868500,5.297868408203125,0.3583354949951172,-0.7577295303344727,0.572894275188446
1742766308261252000,5.312252197265625,0.5410327911376953,0.7751937508583069,-0.7608353495597839
1742766308275635500,5.326635498046875,-1.1979236602783203,0.10570698231458664,-0.6229535341262817
1742766308290019000,5.34101904296875,2.867219924926758,-0.406057745218277,0.2594512104988098
1742766308304402700,5.355402587890625,0.15052318572998047,0.1636434942483902,-0.37881559133529663
1742766308318786000,5.3697861328125,-1.5574321746826172,0.16568826138973236,0.7085708379745483
1742766308333169700,5.384169677734375,0.8564815521240234,-0.15938687324523926,-0.3816472887992859
1742766308347553300,5.39855322265625,0.25885868072509766,-0.27832427620887756,0.00307309627532959
1742766308361936600,5.4129365234375,1.003098487854004,-0.3729090094566345,0.478845477104187
1742766308376320300,5.4273203125,0.8694143295288086,0.18038201332092285,0.20085270702838898
1742766308390703900,5.441703857421875,-0.25810813903808594,-0.3144901990890503,-0.1793617308139801
1742766308405087200,5.456087158203125,0.8452882766723633,0.016458660364151,0.85829758644104
1742766308419470800,5.470470947265625,-0.5945472717285156,0.4063592553138733,0.48926085233688354
1742766308433854200,5.484854248046875,1.8259897232055664,0.14468926191329956,-0.1047292947769165
1742766308448237800,5.49923779296875,0.8564281463623047,0.27154794335365295,-0.14113900065422058
1742766308462621400,5.513621337890625,-0.5313291549682617,-0.2549887001514435,1.1760625839233398
1742766308477004800,5.5280048828125,0.046624183654785156,0.6779704093933105,-0.42981991171836853
1742766308491388400,5.542388427734375,-0.3950157165527344,-0.29134267568588257,-0.18191641569137573
1742766308505772000,5.55677197265625,1.4207468032836914,-0.6360788345336914,-0.2499677538871765
1742766308520155400,5.5711552734375,-0.43975162506103516,-0.3243162930011749,0.12281845510005951
1742766308534539000,5.5855390625,1.434260368347168,-0.13790372014045715,0.12755964696407318
1742766308548922600,5.599922607421875,2.947093963623047,-0.4488297402858734,-0.29288750886917114
1742766308563306000,5.614305908203125,1.8928489685058594,-0.42801594734191895,-0.06696218252182007
1742766308577689600,5.628689697265625,1.675612449645996,-0.06810224056243896,-0.08097460865974426
1742766308592073200,5.6430732421875,2.0080347061157227,0.16541102528572083,-0.11342856287956238
1742766308606456600,5.65745654296875,-0.012820243835449219,0.05096365511417389,-0.5388262271881104
1742766308620840200,5.671840087890625,0.86370849609375,-0.1225350871682167,-0.2251473069190979
1742766308635223800,5.686223876953125,1.6796646118164062,-0.6012169122695923,0.8312321305274963
1742766308649607200,5.700607177734375,-0.27131080627441406,0.4486840069293976,0.5140700340270996
1742766308663990800,5.71499072265625,-2.2583060264587402,-0.13554798066616058,-0.0857318639755249
1742766308678374100,5.7293740234375,0.1529073715209961,0.0018791630864143372,-0.14542248845100403
1742766308692757800,5.7437578125,0.8914213180541992,-0.21296265721321106,0.13357575237751007
1742766308707141400,5.758141357421875,1.5414438247680664,0.3163602352142334,-0.47166502475738525
1742766308721524700,5.772524658203125,-1.0302066802978516,-0.2450542151927948,0.10264308750629425
1742766308735908400,5.786908447265625,0.32543373107910156,-0.19758149981498718,0.01635923981666565
1742766308750292000,5.8012919921875,-0.24766063690185547,-0.5759961009025574,-0.21761950850486755
1742766308764675300,5.81567529296875,1.8046607971191406,0.1447768211364746,0.37834006547927856
1742766308779059000,5.830058837890625,0.48163604736328125,-0.2590324282646179,-0.40349599719047546
1742766308793442600,5.844442626953125,2.1964120864868164,-0.16015371680259705,0.18134014308452606
1742766308807826000,5.858825927734375,0.8955135345458984,0.2234078198671341,-0.2666240930557251
1742766308822209500,5.87320947265625,1.7355270385742188,-0.3074207603931427,-0.008080244064331055
1742766308836593000,5.887593017578125,3.1328296661376953,-0.11197356134653091,-0.010585784912109375
1742766308850976500,5.9019765625,0.28200721740722656,0.2597489356994629,0.08918718993663788
1742766308865360100,5.916360107421875,-0.9599123001098633,0.9029951691627502,-0.39037027955055237
1742766308879743500,5.930743408203125,-1.405853271484375,-0.09943074733018875,-0.4718620777130127
1742766308894127000,5.945127197265625,-0.12440299987792969,-0.42860379815101624,0.33093786239624023
1742766308908510700,5.9595107421875,-2.5313472747802734,0.04859737306833267,-0.212921142578125
1742766308922894000,5.97389404296875,0.1953115463256836,0.30771058797836304,-0.03659975528717041
1742766308937277700,5.988277587890625,0.4092435836791992,-0.40597689151763916,-0.2801376283168793
1742766308951661300,6.002661376953125,1.6356277465820312,0.06116757541894913,0.043774545192718506
1742766308966044700,6.017044677734375,1.1893835067749023,-0.3014228343963623,0.4465451240539551
1742766308980428300,6.03142822265625,2.373241424560547,0.07316209375858307,-0.09032365679740906
1742766308994811600,6.045811767578125,-2.278831958770752,-0.41648122668266296,0.3374813199043274
1742766309009195300,6.0601953125,0.2961874008178711,0.08060772716999054,-0.001052558422088623
1742766309023579000,6.074578857421875,-3.6835999488830566,-0.34643974900245667,0.916567862033844
1742766309037962200,6.088962158203125,3.1190481185913086,-0.5729359984397888,0.48668012022972107
1742766309052345900,6.103345947265625,0.20163917541503906,-0.30542242527008057,-0.7903927564620972
1742766309066729500,6.1177294921875,2.5869760513305664,-0.5384610891342163,0.6761969327926636
1742766309081112800,6.13211279296875,1.5718660354614258,0.17551282048225403,-0.2827759087085724
1742766309095496400,6.146496337890625,-1.2548542022705078,0.7509516477584839,-0.031102031469345093
1742766309109880000,6.160880126953125,-0.09330558776855469,-0.24838608503341675,-0.04504844546318054
1742766309124263400,6.175263427734375,0.8143634796142578,-0.22790054976940155,-0.6824371814727783
1742766309138647000,6.18964697265625,-2.854304790496826,0.41856563091278076,-0.33166778087615967
1742766309153030700,6.20403076171875,1.399087905883789,-0.021851398050785065,-0.6328350305557251
1742766309167414000,6.2184140625,0.04340839385986328,-0.46248605847358704,-0.23708519339561462
1742766309181797600,6.232797607421875,-0.2195291519165039,-0.08543116599321365,-0.18540292978286743
1742766309196181200,6.24718115234375,1.0601720809936523,0.086597740650177,-0.6526615619659424
1742766309210564600,6.261564697265625,-1.2606191635131836,-0.22574838995933533,-0.5787990689277649
1742766309224948200,6.2759482421875,0.4912843704223633,0.18757010996341705,0.1559969037771225
1742766309239331800,6.290331787109375,1.6347246170043945,-0.22863513231277466,0.41190749406814575
1742766309253715200,6.304715087890625,-0.21622276306152344,0.6607047915458679,-0.06533962488174438
1742766309268098800,6.319098876953125,0.19266510009765625,-0.1311926394701004,-0.9741922616958618
1742766309282482200,6.333482177734375,0.011831283569335938,0.43459171056747437,0.47935983538627625
1742766309296865800,6.34786572265625,-2.091740131378174,0.21397088468074799,0.3148934543132782
1742766309311249400,6.36224951171875,-1.2319650650024414,0.4398123621940613,0.07080449163913727
1742766309325632800,6.3766328125,-1.9719338417053223,-0.22178789973258972,-0.3556056022644043
1742766309340016400,6.391016357421875,0.4742097854614258,-0.35059577226638794,0.7525765895843506
1742766309354400000,6.40539990234375,0.7976627349853516,0.02506422996520996,0.3262644112110138
1742766309368783400,6.419783447265625,-1.3686532974243164,0.255575567483902,0.4045123755931854
1742766309383167000,6.4341669921875,1.284719467163086,-0.2459374964237213,-0.41642361879348755
1742766309397550600,6.448550537109375,0.6328611373901367,-1.0196893215179443,0.5838638544082642
1742766309411934000,6.462933837890625,-0.5910558700561523,0.5469552874565125,-0.18217423558235168
1742766309426317600,6.477317626953125,1.548971176147461,-0.4819203019142151,0.5362072587013245
1742766309440701000,6.491700927734375,1.9856491088867188,-0.5535995364189148,-0.6250989437103271
1742766309455084500,6.50608447265625,0.3086385726928711,-0.15692219138145447,-0.17973870038986206
1742766309469468200,6.52046826171875,2.2293882369995117,-0.33432143926620483,-1.0731096267700195
1742766309483851500,6.5348515625,1.2561025619506836,-0.03118056058883667,-0.41978734731674194
1742766309498235100,6.549235107421875,0.64794921875,0.1554923951625824,0.43791741132736206
1742766309512618800,6.56361865234375,2.025136947631836,-0.21834033727645874,-0.22002887725830078
1742766309527002000,6.578002197265625,0.3158073425292969,0.4495384693145752,-0.8206356763839722
1742766309541385700,6.5923857421875,-1.524683952331543,-0.3467813730239868,-0.09543633460998535
1742766309555769300,6.606769287109375,1.1599016189575195,0.21277084946632385,0.10622702538967133
1742766309570152700,6.621152587890625,-1.2624139785766602,-0.21783149242401123,0.3570440113544464
1742766309584536300,6.635536376953125,0.4114818572998047,0.701048731803894,-0.20762193202972412
1742766309598919700,6.649919677734375,-1.9414162635803223,-0.14732906222343445,0.13109111785888672
1742766309613303300,6.66430322265625,1.246908187866211,-0.2684493660926819,0.5897390842437744
1742766309627687000,6.67868701171875,-1.6996450424194336,0.3030824661254883,0.23716630041599274
1742766309642070300,6.6930703125,-2.2643661499023438,0.03283790498971939,0.7988018989562988
1742766309656454000,6.707453857421875,-1.220041275024414,0.03632936626672745,-0.6048952341079712
1742766309670837500,6.72183740234375,-3.576231002807617,0.3685449957847595,0.6268941760063171
1742766309685220900,6.736220947265625,-0.705535888671875,-0.6942107081413269,1.0382128953933716
1742766309699604500,6.7506044921875,1.7740812301635742,0.4929545521736145,-0.907167911529541
1742766309713988000,6.764988037109375,-2.9064459800720215,-0.18251916766166687,0.4479963183403015
1742766309728371500,6.779371337890625,1.9661140441894531,0.1142151951789856,0.08569033443927765
1742766309742755000,6.793755126953125,-0.8341503143310547,0.027266912162303925,-0.02922472357749939
1742766309757138400,6.808138427734375,0.8638105392456055,-0.29137933254241943,0.5350751280784607
1742766309771522000,6.82252197265625,2.4874114990234375,0.17767831683158875,-0.29847443103790283
1742766309785905700,6.83690576171875,-0.052532196044921875,-0.026076003909111023,-0.3541448712348938
1742766309800289000,6.8512890625,-0.5866966247558594,0.38927367329597473,-0.08862969279289246
1742766309814672600,6.865672607421875,-0.30831241607666016,0.3112090826034546,-0.8546174764633179
1742766309829056300,6.88005615234375,0.9957208633422852,-1.1310943365097046,0.6835169792175293
1742766309843439600,6.894439697265625,2.1251602172851562,0.18871888518333435,-0.6378469467163086
1742766309857823200,6.9088232421875,-1.4540901184082031,-0.021578997373580933,0.1902690827846527
1742766309872206600,6.92320654296875,0.25322914123535156,-0.17116102576255798,-0.49868306517601013
1742766309886590200,6.937590087890625,-0.13884449005126953,-0.42570286989212036,0.33794766664505005
1742766309900973800,6.951973876953125,0.3261146545410156,-0.22087156772613525,0.5778226852416992
1742766309915357200,6.966357177734375,0.2115163803100586,0.11709945648908615,-0.2600691318511963
1742766309929740800,6.98074072265625,-3.337376117706299,0.13988009095191956,-0.8700942993164062
1742766309944124400,6.99512451171875,0.8621587753295898,-0.17583782970905304,0.49016132950782776
1742766309958507800,7.0095078125,-1.0589475631713867,-0.21244628727436066,0.6944622993469238
1742766309972891400,7.023891357421875,1.727797508239746,0.563126802444458,-0.016522705554962158
1742766309987275000,7.03827490234375,0.030422210693359375,-0.19528357684612274,-0.8177012205123901
1742766310001658400,7.052658447265625,-0.49164390563964844,0.42699486017227173,0.5078017711639404
1742766310016042000,7.0670419921875,-1.5517301559448242,-0.27877211570739746,0.7521449327468872
1742766310030425600,7.081425537109375,-1.1593284606933594,0.9582266211509705,-0.39276331663131714
1742766310044809000,7.09580908203125,-1.0774364471435547,-1.1292942762374878,0.30098068714141846
1742766310059192600,7.110192626953125,1.2176742553710938,0.14031247794628143,-0.026162773370742798
1742766310073576000,7.124575927734375,-3.3117899894714355,0.41195258498191833,0.23086081445217133
1742766310087959600,7.13895947265625,0.7886514663696289,-0.25780221819877625,0.6834637522697449
1742766310102343200,7.15334326171875,0.08519554138183594,0.05128245800733566,-0.36685100197792053
1742766310116726500,7.1677265625,0.7480192184448242,-0.7077256441116333,0.024357259273529053
1742766310131110100,7.182110107421875,1.95196533203125,0.443834125995636,-0.4766734838485718
1742766310145493800,7.19649365234375,0.5178651809692383,0.14395394921302795,0.2855459451675415
1742766310159877000,7.210877197265625,1.339369773864746,0.16237041354179382,-0.4457465410232544
1742766310174260700,7.2252607421875,0.2739448547363281,0.07894649356603622,0.013850212097167969
1742766310188644400,7.239644287109375,0.525019645690918,-0.2703103721141815,0.12524498999118805
1742766310203027700,7.25402783203125,1.9897089004516602,-0.1559758484363556,-0.8384379148483276
1742766310217411300,7.268411376953125,-1.6963253021240234,0.17114567756652832,0.27919161319732666
1742766310231795000,7.282794921875,0.23009967803955078,0.3853849768638611,0.5116479396820068
1742766310246178300,7.29717822265625,-0.3183307647705078,0.7147128582000732,-0.8297203779220581
1742766310260562000,7.31156201171875,-0.5814199447631836,-0.7145290970802307,-0.2258709967136383
1742766310274945500,7.325945556640625,1.2082624435424805,0.3371855616569519,0.18032768368721008
1742766310289329000,7.340328857421875,-2.8127245903015137,-0.25862282514572144,0.29519301652908325
1742766310303712500,7.35471240234375,1.5394773483276367,0.09272655099630356,0.6877419948577881
1742766310318096000,7.369095947265625,-0.03512382507324219,0.0816972628235817,-0.41968074440956116
1742766310332479500,7.3834794921875,0.8255853652954102,-0.32104355096817017,0.4552922248840332
1742766310346863000,7.397863037109375,0.21392059326171875,-0.2689059376716614,0.1149931401014328
1742766310361246500,7.41224658203125,-2.3575425148010254,0.17037226259708405,-0.06079062819480896
1742766310375630000,7.426630126953125,-0.18217945098876953,-0.40270793437957764,0.19172924757003784
1742766310390013700,7.441013671875,0.3600740432739258,-0.029552415013313293,0.8347690105438232
1742766310404397000,7.45539697265625,-0.6881265640258789,0.40998905897140503,-0.8565887212753296
1742766310418780700,7.46978076171875,0.5190238952636719,-0.12151110172271729,0.5829130411148071
1742766310433164300,7.484164306640625,2.557018280029297,-0.4201090335845947,0.6354313492774963
1742766310447547600,7.498547607421875,-0.14195728302001953,-0.5827321410179138,-0.2523559331893921
1742766310461931300,7.51293115234375,2.771664619445801,-0.15156450867652893,0.065326988697052
1742766310476314600,7.527314697265625,1.2183313369750977,0.10676880180835724,-0.518628716468811
1742766310490698200,7.5416982421875,-1.092148780822754,0.7656227350234985,-1.2394487857818604
1742766310505081900,7.556081787109375,1.3391809463500977,-0.7687190771102905,0.6328965425491333
1742766310519465200,7.57046533203125,-1.271195411682129,0.711327850818634,-0.7888950109481812
1742766310533848800,7.584848876953125,-2.8261656761169434,-0.08394314348697662,-0.1944587230682373
1742766310548232400,7.599232421875,2.120939254760742,-0.6535804867744446,-0.27928587794303894
1742766310562615800,7.61361572265625,-1.1553764343261719,0.013848468661308289,-0.7941934466362
1742766310576999400,7.62799951171875,-0.30133914947509766,0.36792081594467163,-0.2199435830116272
1742766310591383000,7.642383056640625,0.24625492095947266,-0.16710667312145233,-0.6536874771118164
1742766310605766400,7.656766357421875,-0.4519672393798828,0.12083160132169724,-0.18775567412376404
1742766310620150000,7.67114990234375,0.6153774261474609,-0.3474118113517761,0.8990210294723511
1742766310634533400,7.685533447265625,-1.1378936767578125,0.7574961185455322,-1.1544554233551025
1742766310648917000,7.6999169921875,-1.1340532302856445,-0.13529247045516968,-0.11039558053016663
1742766310663300600,7.714300537109375,2.0152807235717773,0.21786954998970032,0.4551311433315277
1742766310677684000,7.72868408203125,-0.02161693572998047,-0.2169288545846939,0.3156784772872925
1742766310692067600,7.743067626953125,0.9246368408203125,0.43315011262893677,0.0777776688337326
1742766310706451200,7.757451171875,-0.30713653564453125,-0.16311055421829224,0.41996297240257263
1742766310720834600,7.77183447265625,1.0425987243652344,0.17658668756484985,0.10597260296344757
1742766310735218200,7.78621826171875,-0.2715263366699219,0.47422656416893005,0.5911804437637329
1742766310749601800,7.800601806640625,-1.3293638229370117,0.6098754405975342,0.6875802278518677
1742766310763985200,7.814985107421875,0.8490495681762695,-0.48183703422546387,0.2228720635175705
1742766310778368800,7.82936865234375,1.2572908401489258,-0.7665197253227234,0.18103764951229095
1742766310792752000,7.843752197265625,-0.5176458358764648,0.3906658887863159,0.08732704818248749
1742766310807135700,7.8581357421875,-1.4455680847167969,0.2531258463859558,-0.18048250675201416
1742766310821519400,7.872519287109375,-0.12436389923095703,-0.2191666066646576,0.44621649384498596
1742766310835902700,7.88690283203125,1.802351951599121,-0.6691416501998901,0.3489685356616974
1742766310850286300,7.901286376953125,-1.1276311874389648,0.30141881108283997,-0.6512261033058167
1742766310864670000,7.915669921875,0.585322380065918,-0.5052639842033386,-0.4244943857192993
1742766310879053300,7.93005322265625,-0.7475185394287109,0.17721761763095856,-0.9223945140838623
1742766310893437000,7.94443701171875,-1.3554906845092773,-0.4596427083015442,0.7895342111587524
1742766310907820500,7.958820556640625,2.2449417114257812,0.0021747052669525146,-0.2248760163784027
1742766310922204000,7.973203857421875,-3.0072760581970215,-0.07715274393558502,-1.8260951042175293
1742766310936587500,7.98758740234375,1.1410093307495117,-0.6642600893974304,0.5040368437767029
1742766310950971000,8.001970947265624,2.5771970748901367,-0.106351338326931,0.30210357904434204
1742766310965354500,8.0163544921875,-2.9283156394958496,1.0283613204956055,-0.6275818347930908
1742766310979738000,8.030738037109375,-0.08224105834960938,0.04276569187641144,-0.8698369264602661
1742766310994121500,8.04512158203125,-0.20584678649902344,0.37749314308166504,-0.6157851219177246
1742766311008505000,8.059505126953125,-1.6900978088378906,-0.9016686677932739,1.120203971862793
1742766311022888700,8.073888671875,0.9045524597167969,0.9349405765533447,0.2345188856124878
1742766311037272000,8.08827197265625,-1.3107709884643555,-0.21888387203216553,-0.5722042918205261
1742766311051655700,8.10265576171875,1.304926872253418,-0.34848737716674805,-0.7245181202888489
1742766311066039000,8.1170390625,-2.1219635009765625,0.15085139870643616,0.3931155502796173
1742766311080422700,8.131422607421875,-1.1418581008911133,0.5302455425262451,-0.25708821415901184
1742766311094806300,8.14580615234375,-0.35901451110839844,-0.43010005354881287,0.09547556936740875
1742766311109189600,8.160189697265626,2.304978370666504,0.010409526526927948,-0.22794994711875916
1742766311123573200,8.1745732421875,-0.4400014877319336,0.1398085653781891,0.21256066858768463
1742766311137956900,8.188956787109374,0.2528505325317383,0.2681865394115448,-0.38893067836761475
1742766311152340200,8.20334033203125,-1.2317991256713867,-0.20280520617961884,-0.43579035997390747
1742766311166723800,8.217723876953125,1.584482192993164,-0.44871169328689575,1.0044753551483154
1742766311181107500,8.232107421875,1.755143165588379,0.48261094093322754,-0.7575304508209229
1742766311195490800,8.24649072265625,0.1692485809326172,-0.10884484648704529,0.27964234352111816
1742766311209874400,8.26087451171875,1.1521024703979492,0.25962725281715393,0.19860577583312988
1742766311224257800,8.2752578125,1.1351089477539062,0.04213230311870575,-0.22229838371276855
1742766311238641400,8.289641357421875,1.0323801040649414,-0.5953393578529358,-0.24334248900413513
1742766311253025000,8.30402490234375,-1.5692949295043945,0.540138840675354,-1.5383628606796265
1742766311267408400,8.318408447265625,-0.37895870208740234,-0.3625427484512329,0.5890425443649292
1742766311281792000,8.3327919921875,1.9968175888061523,-0.6853594779968262,0.1755550056695938
1742766311296175600,8.347175537109376,-0.695378303527832,0.23000690340995789,-0.44983285665512085
1742766311310559000,8.36155908203125,1.0203094482421875,-0.7919612526893616,0.45085638761520386
1742766311324942600,8.375942626953124,1.4052772521972656,0.05338031053543091,-0.9513694047927856
1742766311339326200,8.390326171875,-2.053154468536377,-0.19608205556869507,0.7732653617858887
1742766311353709600,8.40470947265625,-0.16570568084716797,0.6255216598510742,-0.017288148403167725
1742766311368093200,8.41909326171875,-0.2715730667114258,-0.14809229969978333,-0.3856068551540375
1742766311382476500,8.4334765625,-0.03565692901611328,-0.012388601899147034,0.5796310901641846
1742766311396860200,8.447860107421874,-0.8470916748046875,-0.5058554410934448,0.6272952556610107
1742766311411243800,8.462243896484376,-1.2029733657836914,-0.005157388746738434,0.16895070672035217
1742766311425627100,8.476627197265625,0.1637401580810547,-0.7180464863777161,0.5428556203842163
1742766311440010800,8.4910107421875,-0.07237625122070312,0.2248089611530304,0.10575641691684723
1742766311454394400,8.505394287109375,1.6213455200195312,-0.18811258673667908,0.4772847294807434
1742766311468777700,8.51977783203125,1.991499900817871,-0.05744146555662155,0.7450908422470093
1742766311483161300,8.534161376953126,-0.6101675033569336,0.49256637692451477,-0.5923863649368286
1742766311497545000,8.548544921875,-0.0015239715576171875,-0.29660579562187195,0.4405093491077423
1742766311511928300,8.56292822265625,-0.7871303558349609,0.246963232755661,-0.0700111985206604
1742766311526312000,8.57731201171875,-2.027571678161621,0.39633652567863464,0.07067377865314484
1742766311540695300,8.5916953125,1.1260499954223633,-0.24143528938293457,0.16111823916435242
1742766311555079000,8.606078857421876,1.7748546600341797,-0.012737557291984558,-0.20996364951133728
1742766311569462500,8.620462646484375,0.4358100891113281,-0.053732454776763916,-0.0211239755153656
1742766311583846000,8.634845947265624,0.12365341186523438,0.010093465447425842,-0.10167762637138367
1742766311598229500,8.6492294921875,-0.8127784729003906,-0.01672998070716858,-0.06695210933685303
1742766311612613000,8.663613037109375,1.716832160949707,-0.7876141667366028,0.3937267065048218
1742766311626996500,8.67799658203125,0.6835813522338867,0.679864764213562,-1.0860246419906616
1742766311641380000,8.692380126953125,-3.361114025115967,-0.3390461504459381,-0.13832810521125793
1742766311655763700,8.706763671875,1.8554019927978516,0.3000037968158722,0.4892312288284302
1742766311670147000,8.72114697265625,-0.24009990692138672,-0.22553347051143646,0.20102103054523468
1742766311684530700,8.73553076171875,1.9765081405639648,-0.23933176696300507,0.038066983222961426
1742766311698914000,8.7499140625,1.1854000091552734,0.3735666871070862,-0.910218358039856
1742766311713297700,8.764297607421875,-0.5925769805908203,0.00902935117483139,0.5870822668075562
1742766311727681300,8.778681396484375,0.9594020843505859,-0.337304025888443,0.42061132192611694
1742766311742064600,8.793064697265624,2.5479507446289062,0.9143056869506836,0.4494180679321289
1742766311756448300,8.8074482421875,2.279848098754883,-0.39096641540527344,-0.847934365272522
1742766311770832000,8.821831787109375,-0.4925041198730469,0.47580674290657043,0.43843984603881836
1742766311785215200,8.83621533203125,-1.6736536026000977,0.043803296983242035,0.1853851079940796
1742766311799598800,8.850598876953125,0.47144031524658203,0.028815142810344696,0.7678642868995667
1742766311813982500,8.864982421875,-1.0529003143310547,0.22646647691726685,-0.47194549441337585
1742766311828365800,8.87936572265625,-1.7184667587280273,0.007843010127544403,0.5090365409851074
1742766311842749400,8.89374951171875,0.1749591827392578,-0.47251754999160767,-0.051698923110961914
1742766311857132800,8.9081328125,-0.6956081390380859,0.028900355100631714,0.17305468022823334
1742766311871516400,8.922516357421875,-0.2828550338745117,-0.4451715350151062,0.3083014488220215
1742766311885900000,8.936900146484374,0.2043914794921875,-0.08744031935930252,0.19192072749137878
1742766311900283400,8.951283447265626,0.07924747467041016,-0.45899122953414917,0.09878401458263397
1742766311914667000,8.9656669921875,1.000758171081543,0.23070670664310455,0.06658314168453217
1742766311929050600,8.980050537109374,-1.0404300689697266,-0.013271220028400421,-0.41356074810028076
1742766311943434000,8.99443408203125,0.7968168258666992,-0.7642278671264648,-0.057310789823532104
1742766311957817600,9.008817626953125,-0.2630596160888672,0.32138535380363464,-0.8346282839775085
1742766311972201200,9.023201171875,-1.239847183227539,0.2733256220817566,-0.15978968143463135
1742766311986584600,9.03758447265625,2.372648239135742,-0.08542883396148682,-0.6376169919967651
1742766312000968200,9.05196826171875,0.7694664001464844,-0.07506076991558075,-0.38099998235702515
1742766312015351600,9.0663515625,-1.9906258583068848,-0.06283017247915268,-0.47212255001068115
1742766312029735200,9.080735107421875,0.24801063537597656,0.4858454167842865,-0.889640212059021
1742766312044118800,9.095118896484376,-0.2737140655517578,-0.38223084807395935,0.03906559944152832
1742766312058502100,9.109502197265625,1.3186845779418945,-0.07157241553068161,0.05885326862335205
1742766312072885800,9.1238857421875,-1.0840463638305664,0.245143324136734,-0.9782776832580566
1742766312087269400,9.138269287109376,-0.8625602722167969,-0.46279415488243103,-0.6819649338722229
1742766312101652700,9.15265283203125,-1.2726259231567383,0.4240085482597351,0.4539811611175537
1742766312116036400,9.167036376953124,-2.2363152503967285,-0.16736876964569092,0.13185639679431915
1742766312130420000,9.181419921875,0.7309026718139648,0.5654079914093018,-0.5765185952186584
1742766312144803300,9.19580322265625,-1.197859764099121,-0.2778887152671814,-0.5415219068527222
1742766312159187000,9.21018701171875,0.7009515762329102,-0.3084489703178406,0.3474699854850769
1742766312173570300,9.2245703125,1.0324831008911133,0.01660861074924469,0.6966524720191956
1742766312187954000,9.238953857421874,-0.061972618103027344,0.1735631227493286,0.7246668338775635
1742766312202337500,9.253337646484376,-0.5013637542724609,0.41409412026405334,-0.5398699045181274
1742766312216721000,9.267720947265625,-1.2351417541503906,0.525239884853363,0.452202171087265
1742766312231104500,9.2821044921875,-1.5077753067016602,-0.5735831260681152,0.30688196420669556
1742766312245488000,9.296488037109375,-0.6320028305053711,0.7534387707710266,-0.4205915629863739
1742766312259871500,9.31087158203125,-1.913811206817627,0.14923095703125,0.3296950161457062
1742766312274255000,9.325255126953126,1.8931255340576172,0.3881072998046875,0.108838751912117
1742766312288638500,9.339638427734375,-0.7347965240478516,-0.08462915569543839,-0.0992647111415863
1742766312303022000,9.35402197265625,-2.129045009613037,0.3158012330532074,0.11515377461910248
1742766312317405700,9.36840576171875,-0.9991512298583984,-0.020799599587917328,-0.2762048840522766
1742766312331789000,9.3827890625,0.21585845947265625,-0.1890772432088852,0.551336944103241
1742766312346172700,9.397172607421876,-1.8718323707580566,0.22636157274246216,-0.19498533010482788
1742766312360556300,9.411556396484375,0.4933176040649414,0.016622796654701233,-0.3970872163772583
1742766312374939600,9.425939697265624,-0.6280279159545898,-0.19322946667671204,-0.3223060965538025
1742766312389323300,9.4403232421875,0.4915275573730469,-0.4219498932361603,0.0701741874217987
1742766312403706600,9.45470654296875,-0.607940673828125,-0.04931250214576721,-0.36278390884399414
1742766312418090200,9.46909033203125,-0.08561897277832031,-0.07955782115459442,-0.844473659992218
1742766312432473900,9.483473876953125,-0.043435096740722656,-0.1601330041885376,-0.2858240306377411
1742766312446857200,9.497857177734375,2.501737594604492,-0.7982422709465027,0.3919161558151245
1742766312461240800,9.51224072265625,-0.1190500259399414,0.14386090636253357,-0.5478777885437012
1742766312475624400,9.52662451171875,-0.5011253356933594,-0.3778190016746521,-0.6997016668319702
1742766312490007800,9.5410078125,0.7799320220947266,-0.45833802223205566,0.8039857745170593
1742766312504391400,9.555391357421875,1.6623735427856445,0.8699936270713806,-0.7825084924697876
1742766312518774800,9.56977490234375,-0.6437511444091797,0.36600279808044434,-0.6373564004898071
1742766312533158400,9.584158447265626,-0.7972278594970703,0.17707398533821106,-0.6865558624267578
1742766312547542000,9.5985419921875,-1.9508442878723145,0.07208195328712463,-0.09853851795196533
1742766312561925400,9.61292529296875,-1.1698932647705078,-0.5263448357582092,0.38610711693763733
1742766312576309000,9.62730908203125,-0.48943328857421875,-0.07304557412862778,0.7925493717193604
1742766312590692600,9.641692626953125,2.327151298522949,0.3637731373310089,-1.1759604215621948
1742766312605076000,9.656075927734374,0.950129508972168,-0.5040604472160339,-0.06164228916168213
1742766312619459600,9.67045947265625,1.6690759658813477,-0.47138527035713196,0.929779052734375
1742766312633843200,9.68484326171875,-0.3772287368774414,0.7504004836082458,0.045900046825408936
1742766312648226600,9.6992265625,-0.13171958923339844,-0.18306280672550201,-0.12547922134399414
1742766312662610200,9.713610107421875,-0.5532464981079102,0.6285864114761353,-0.8161153197288513
1742766312676993500,9.72799365234375,-1.3698101043701172,0.17770186066627502,0.18515731394290924
1742766312691377200,9.742377197265625,-1.6554231643676758,-0.007386058568954468,0.2526279091835022
1742766312705760800,9.7567607421875,-1.4273004531860352,0.13066944479942322,-0.9901942014694214
1742766312720144100,9.77114404296875,-3.037449836730957,-0.4403553009033203,0.45168036222457886
1742766312734527700,9.78552783203125,-0.08963680267333984,0.10598865896463394,0.008107662200927734
1742766312748911400,9.799911376953125,1.5424604415893555,0.10123833268880844,0.3730156421661377
1742766312763294700,9.814294677734376,1.6650753021240234,-0.343086838722229,0.8274968862533569
1742766312777678300,9.82867822265625,0.868896484375,0.690680980682373,-0.6996598243713379
1742766312792061700,9.843061767578124,0.11321640014648438,-0.036722466349601746,-0.09618711471557617
1742766312806445300,9.8574453125,0.36530303955078125,-0.06951918452978134,-0.2678963541984558
1742766312820829000,9.871828857421875,-0.34798145294189453,0.4781322479248047,-0.40951600670814514
1742766312835212300,9.88621240234375,1.4397258758544922,-0.12896199524402618,0.5237519145011902
1742766312849596000,9.900595947265625,2.144291877746582,-0.14370301365852356,-0.06481143832206726
1742766312863979500,9.9149794921875,-0.4794502258300781,0.010006852447986603,-1.2602157592773438
1742766312878363000,9.92936279296875,0.38127803802490234,-0.19005131721496582,-0.1761854588985443
1742766312892746500,9.94374658203125,2.0802536010742188,-0.15911631286144257,0.3123128414154053
1742766312907130000,9.958130126953124,0.3597984313964844,0.4397909939289093,-0.12328621745109558
1742766312921513500,9.972513427734375,-1.8887743949890137,-0.31994181871414185,-0.7889429926872253
1742766312935897000,9.98689697265625,0.0679311752319336,0.19632908701896667,-0.556527853012085
1742766312950280400,10.001280517578126,-1.7164068222045898,-0.25750502943992615,0.26236891746520996
1742766312964664000,10.0156640625,-0.9896039962768555,-0.11402834951877594,0.33021193742752075
1742766312979047700,10.030047607421874,-1.598250389099121,0.2361835539340973,-0.7912019491195679
1742766312993431000,10.04443115234375,0.25559043884277344,-0.6601750254631042,0.45491912961006165
1742766313007814700,10.058814697265625,0.14811134338378906,-0.5390012860298157,-0.2682367265224457
1742766313022198300,10.0731982421875,0.38672924041748047,0.41407841444015503,0.9561514854431152
1742766313036581600,10.08758154296875,2.323505401611328,-0.7020062804222107,0.2120843082666397
1742766313050965200,10.10196533203125,-0.49639034271240234,0.26823490858078003,-0.634829044342041
1742766313065348900,10.116348876953126,-0.8805046081542969,-0.4449549615383148,0.6816734075546265
1742766313079732200,10.130732177734375,1.5387248992919922,0.22677190601825714,0.029773861169815063
1742766313094115800,10.14511572265625,-1.3187036514282227,-0.3123753070831299,0.2522064447402954
1742766313108499200,10.159499267578125,1.3037042617797852,-0.003485634922981262,-0.09511908888816833
1742766313122882800,10.1738828125,-1.474381446838379,-0.1023179292678833,-0.06879523396492004
1742766313137266400,10.188266357421876,0.8077812194824219,0.4173029661178589,0.044210582971572876
1742766313151649800,10.20264990234375,1.1489200592041016,-0.2734425961971283,0.3995223045349121
1742766313166033400,10.217033447265624,2.694040298461914,-0.2394152730703354,0.10863153636455536
1742766313180417000,10.2314169921875,1.5739097595214844,-0.004299372434616089,-0.8601779341697693
1742766313194800400,10.24580029296875,1.435368537902832,0.22475887835025787,0.13843299448490143
1742766313209184000,10.26018408203125,1.3561086654663086,0.4085828959941864,-0.7209011316299438
1742766313223567600,10.274567626953125,1.6570405960083008,-0.6808363795280457,0.7712754011154175
1742766313237951000,10.288950927734374,1.4691858291625977,0.3561475872993469,-0.8986684083938599
1742766313252334600,10.30333447265625,-1.166977882385254,0.002397984266281128,-0.8465443253517151
1742766313266718000,10.317718017578125,-0.13129425048828125,0.19192516803741455,0.014308840036392212
1742766313281101600,10.3321015625,0.7520885467529297,-0.19414037466049194,-0.3999125063419342
1742766313295485200,10.346485107421875,0.31056785583496094,-0.12321481853723526,-0.2515099048614502
1742766313309868500,10.36086865234375,-0.22311973571777344,-0.602504312992096,-0.20390811562538147
1742766313324252200,10.375252197265626,0.7022171020507812,0.21838754415512085,0.40546613931655884
1742766313338635800,10.3896357421875,0.3887901306152344,-0.43735551834106445,0.8406358361244202
1742766313353019100,10.40401904296875,0.7411212921142578,0.5577114224433899,-0.09272098541259766
1742766313367402800,10.41840283203125,-0.8055973052978516,0.01160190999507904,-0.9804150462150574
1742766313381786400,10.432786376953125,-0.46083736419677734,0.48695892095565796,-0.38926050066947937
1742766313396169700,10.447169677734376,0.18449020385742188,-0.5798673033714294,0.6707079410552979
1742766313410553300,10.46155322265625,-0.24973583221435547,0.8665225505828857,0.37594783306121826
1742766313424936700,10.475936767578125,-0.4322175979614258,0.2767433226108551,-0.19799965620040894
1742766313439320300,10.4903203125,0.22373104095458984,-0.49411970376968384,-0.10137313604354858
1742766313453704000,10.504703857421875,-0.15816497802734375,0.016301676630973816,0.36565929651260376
1742766313468087300,10.51908740234375,-1.9600958824157715,0.027986057102680206,1.3143168687820435
1742766313482471000,10.533470947265625,0.2992382049560547,0.6285121440887451,-0.4292093515396118
1742766313496854500,10.5478544921875,-1.9828391075134277,0.5082614421844482,-0.37968119978904724
1742766313511238000,10.56223779296875,-0.36060619354248047,-0.7149670720100403,0.3771773874759674
1742766313525621500,10.57662158203125,0.4297647476196289,0.5644360780715942,0.22299660742282867
1742766313540005000,10.591005126953124,-0.21580982208251953,0.021891295909881592,0.6286436319351196
1742766313554388500,10.605388427734376,1.211648941040039,-0.329655259847641,0.52528315782547
1742766313568772000,10.619772216796875,-2.328575611114502,-0.20035240054130554,0.4781281650066376
1742766313583155500,10.634155517578124,-1.1400327682495117,0.3576304316520691,-0.41192978620529175
1742766313597539000,10.6485390625,-0.7489337921142578,-0.25482866168022156,0.6966543197631836
1742766313611922700,10.662922607421875,2.2093505859375,-0.39539214968681335,0.00822758674621582
1742766313626306000,10.67730615234375,-1.1432104110717773,0.012324094772338867,-0.7635242938995361
1742766313640689700,10.691689697265625,-0.6571731567382812,0.2769184112548828,-0.047050654888153076
1742766313655073000,10.706072998046874,1.2620725631713867,-0.3384508490562439,-0.2805357873439789
1742766313669456600,10.72045654296875,0.6680679321289062,-0.5303480625152588,0.011188715696334839
1742766313683840300,10.73484033203125,0.7800397872924805,0.09130781888961792,-0.7887879014015198
1742766313698223600,10.7492236328125,-0.6216182708740234,0.324761301279068,-0.8073140382766724
1742766313712607200,10.763607177734375,-0.036597251892089844,-0.11181630939245224,0.14343251287937164
1742766313726990800,10.777990966796875,0.29819774627685547,-0.4652441143989563,0.11992795765399933
1742766313741374200,10.792374267578126,1.4991483688354492,0.2853008210659027,-0.4735604524612427
1742766313755757800,10.8067578125,-1.199289321899414,-0.32046595215797424,-1.274919867515564
1742766313770141200,10.82114111328125,0.20173358917236328,0.42648231983184814,0.5764394402503967
1742766313784524800,10.83552490234375,-0.2531929016113281,-0.24275174736976624,0.24703362584114075
1742766313798908400,10.849908447265625,0.9639186859130859,0.5783857703208923,-0.1959206759929657
1742766313813291800,10.864291748046876,0.8378925323486328,-0.3494337201118469,-0.23170322179794312
1742766313827675400,10.87867529296875,-0.7188720703125,0.23144815862178802,-0.23520290851593018
1742766313842059000,10.89305908203125,0.259613037109375,-0.45265212655067444,0.661190390586853
1742766313856442400,10.9074423828125,0.4498424530029297,-0.31236010789871216,0.7824051380157471
1742766313870826000,10.921825927734375,0.6334915161132812,0.3155655860900879,-0.5588059425354004
1742766313885209600,10.936209716796874,-0.6120386123657227,0.3170992136001587,0.1618548184633255
1742766313899593000,10.950593017578125,2.047482490539551,-1.0999802350997925,0.31513720750808716
1742766313913976600,10.9649765625,0.3854398727416992,0.8789281845092773,-0.2517327666282654
1742766313928360000,10.97935986328125,-1.757563591003418,0.1355041116476059,0.3013042211532593
1742766313942743600,10.99374365234375,1.707925796508789,0.07539866864681244,-0.1298908293247223
1742766313957127200,11.008127197265624,-0.9616470336914062,-0.5072969198226929,1.0474729537963867
1742766313971510500,11.022510498046875,0.228363037109375,0.7833123207092285,-0.29983192682266235
1742766313985894100,11.03689404296875,1.3694543838500977,0.5489044785499573,0.3612496554851532
1742766314000277800,11.05127783203125,0.24306678771972656,-0.0578361377120018,0.10720552504062653
1742766314014661000,11.0656611328125,-1.9618721008300781,0.18882229924201965,0.03141099214553833
1742766314029044700,11.080044677734374,-2.283845901489258,0.25582796335220337,0.05388098955154419
1742766314043428400,11.094428466796876,0.5053081512451172,-0.14942514896392822,0.0062246620655059814
1742766314057811700,11.108811767578125,-1.0577058792114258,-0.07222585380077362,0.2412680685520172
1742766314072195300,11.1231953125,0.674799919128418,0.32001835107803345,-0.08884420990943909
1742766314086578700,11.13757861328125,0.6532983779907227,0.09124985337257385,-0.7175911664962769
1742766314100962300,11.15196240234375,2.787921905517578,0.14480814337730408,-0.15811586380004883
1742766314115346000,11.166345947265626,0.11490154266357422,0.04928019642829895,0.10353542864322662
1742766314129729300,11.180729248046875,-0.8340263366699219,0.647920548915863,-0.2522437870502472
1742766314144113000,11.19511279296875,-0.2540149688720703,-0.18450886011123657,-0.8777627944946289
1742766314158496500,11.20949658203125,-1.0656213760375977,-0.18771407008171082,0.2952035069465637
1742766314172880000,11.2238798828125,1.1411476135253906,-0.19501057267189026,0.3499928116798401
1742766314187263500,11.238263427734376,-1.3861980438232422,-0.26923561096191406,-0.2563575208187103
1742766314201647000,11.252647216796875,-0.19175243377685547,0.22196409106254578,-0.8357961177825928
1742766314216030500,11.267030517578124,-1.6497802734375,-0.24215394258499146,0.4395711123943329
1742766314230414000,11.2814140625,-0.4659137725830078,-0.2585952579975128,0.3569462299346924
1742766314244797400,11.29579736328125,0.3926706314086914,0.0885976105928421,0.36651450395584106
1742766314259181000,11.31018115234375,1.0054025650024414,0.09420795738697052,-0.9096221923828125
1742766314273564700,11.324564697265625,0.48290538787841797,-0.08909719437360764,-0.1880456805229187
1742766314287948000,11.338947998046875,-2.0418190956115723,-0.7208147644996643,0.780724287033081
1742766314302331600,11.35333154296875,0.49504661560058594,0.35395804047584534,0.4004899263381958
1742766314316715300,11.36771533203125,-0.7324390411376953,-0.24837139248847961,-0.11735600233078003
1742766314331098600,11.3820986328125,2.082747459411621,0.010269969701766968,0.5396377444267273
1742766314345482200,11.396482177734375,-0.8362674713134766,-0.36737722158432007,0.01211664080619812
1742766314359865900,11.410865966796875,1.6043205261230469,0.548617422580719,-0.11260056495666504
1742766314374249200,11.425249267578126,0.35288333892822266,0.6070978045463562,-0.16753116250038147
1742766314388632800,11.4396328125,-0.0657806396484375,0.5388554334640503,-0.5198937058448792
1742766314403016200,11.45401611328125,-0.033538818359375,-0.5821211338043213,-0.15322840213775635
1742766314417399800,11.46839990234375,-1.9422502517700195,0.5782042741775513,-0.2591915726661682
1742766314431783400,11.482783447265625,0.055335044860839844,0.22613880038261414,0.1757984310388565
1742766314446166800,11.497166748046874,0.8504476547241211,-0.14572195708751678,0.18091320991516113
1742766314460550400,11.51155029296875,-0.1990976333618164,0.056312426924705505,0.23100751638412476
1742766314474933800,11.525933837890625,0.3486042022705078,0.32693028450012207,-0.6201828718185425
1742766314489317400,11.5403173828125,1.4474773406982422,-0.16778643429279327,-0.023388415575027466
1742766314503701000,11.554700927734375,2.211200714111328,0.048588961362838745,-0.4691113531589508
1742766314518084400,11.56908447265625,-1.2893247604370117,0.07093086838722229,-0.03260701894760132
1742766314532468000,11.583468017578125,0.6558923721313477,0.46805375814437866,-0.6703920960426331
1742766314546851600,11.5978515625,0.7051467895507812,-0.20451441407203674,0.8477648496627808
1742766314561235000,11.61223486328125,3.26507568359375,0.0879109799861908,-0.22838884592056274
1742766314575618600,11.62661865234375,-1.3612661361694336,0.449446439743042,-0.398521363735199
1742766314590002000,11.641001953125,0.8024730682373047,0.45074307918548584,-0.813614010810852
1742766314604385500,11.655385498046876,-0.07892990112304688,-0.008146226406097412,-0.33530259132385254
1742766314618769200,11.66976904296875,-1.300328254699707,0.21477235853672028,0.8505812883377075
1742766314633152500,11.684152587890624,-0.6551456451416016,0.4835358262062073,-0.1973475217819214
1742766314647536000,11.6985361328125,-1.8940176963806152,0.07394401729106903,-0.9734626412391663
1742766314661919700,11.712919677734375,-0.09973716735839844,0.561355471611023,0.44567835330963135
1742766314676303000,11.72730322265625,0.7805500030517578,-0.14001043140888214,0.34357979893684387
1742766314690686700,11.741686767578125,1.0081720352172852,0.6958823204040527,0.5629808902740479
1742766314705070300,11.7560703125,-1.5439271926879883,-0.16454516351222992,-0.16363799571990967
1742766314719453700,11.77045361328125,1.4550228118896484,0.148448646068573,0.284432590007782
1742766314733837300,11.78483740234375,-0.2539520263671875,-0.18396741151809692,0.8999898433685303
1742766314748220700,11.799220703125,1.5751161575317383,0.3476526737213135,0.9784121513366699
1742766314762604300,11.813604248046875,1.7368640899658203,0.2054145336151123,-0.349423885345459
1742766314776988000,11.82798779296875,-2.5956101417541504,0.26180019974708557,0.43292927742004395
1742766314791371300,11.842371337890626,-0.10638618469238281,-0.33017879724502563,0.6966370344161987
1742766314805755000,11.8567548828125,1.642765998840332,0.10345745086669922,0.8897790908813477
1742766314820138500,11.871138427734374,0.08125686645507812,-0.01391156017780304,0.2484409362077713
1742766314834521900,11.88552197265625,-0.4037790298461914,0.2736700773239136,-0.3480393588542938
1742766314848905500,11.899905517578125,-0.42151641845703125,-0.020006462931632996,0.35240572690963745
1742766314863288800,11.914288818359376,-0.3150510787963867,0.06416355073451996,0.5327017903327942
1742766314877672400,11.92867236328125,-0.2330493927001953,-0.17552919685840607,0.6552700996398926
1742766314892056000,11.94305615234375,-0.11268997192382812,-0.23699027299880981,-0.377665638923645
1742766314906439400,11.957439453125,1.0265865325927734,-0.513363242149353,0.13746778666973114
1742766314920823000,11.971822998046875,-0.7877779006958008,0.7139390707015991,-0.5736587047576904
1742766314935206700,11.98620654296875,2.320366859436035,0.10285118222236633,0.15006698668003082
1742766314949590000,12.000590087890625,2.203921318054199,-0.6124027967453003,0.28543636202812195
1742766314963973600,12.0149736328125,0.9494285583496094,0.30717888474464417,-0.572731614112854
1742766314978357200,12.029357177734376,0.7920618057250977,0.03926056623458862,-0.3065986931324005
1742766314992740600,12.04374072265625,1.713491439819336,0.5706582069396973,0.36525043845176697
1742766315007124200,12.058124267578124,0.13333988189697266,-0.377383828163147,0.2065160721540451
1742766315021507600,12.072507568359375,1.708669662475586,0.1619642674922943,-0.16240143775939941
1742766315035891200,12.08689111328125,-0.3662862777709961,0.49242135882377625,-1.3818780183792114
1742766315050274800,12.10127490234375,0.09478569030761719,-0.3178330659866333,0.790841817855835
1742766315064658200,12.115658203125,1.0850448608398438,0.03671683371067047,0.9287292957305908
1742766315079041800,12.130041748046875,-0.5757293701171875,0.4398851990699768,-0.07402333617210388
1742766315093425400,12.14442529296875,0.3653268814086914,0.06876644492149353,-0.9133071303367615
1742766315107808800,12.158808837890625,0.2524900436401367,0.14506280422210693,0.49072083830833435
1742766315122192400,12.1731923828125,-0.21556568145751953,-0.40974390506744385,0.6527886390686035
1742766315136576000,12.187575927734375,-0.011427879333496094,0.34791427850723267,0.12862619757652283
1742766315150959400,12.20195947265625,-1.2251720428466797,0.06990116834640503,0.15522167086601257
1742766315165343000,12.216343017578126,0.8547277450561523,0.06923116743564606,0.03735896944999695
1742766315179726300,12.230726318359375,-0.1688213348388672,-0.4841322898864746,0.7632813453674316
1742766315194110000,12.24510986328125,1.2574577331542969,0.46134424209594727,0.7031958103179932
1742766315208493600,12.25949365234375,0.02967357635498047,0.5311858654022217,-0.07004263997077942
1742766315222877000,12.273876953125,-0.2528867721557617,0.5550797581672668,0.5734541416168213
1742766315237260500,12.288260498046874,-0.43790245056152344,-0.2720416486263275,0.3818306028842926
1742766315251644200,12.30264404296875,-1.6541376113891602,0.6791977882385254,0.4419902265071869
1742766315266027500,12.317027587890625,-1.2282695770263672,0.7369938492774963,0.4556388258934021
1742766315280411100,12.3314111328125,0.8066740036010742,-0.3537813425064087,0.265716016292572
1742766315294794500,12.34579443359375,-0.2907257080078125,0.035526275634765625,-0.10595104098320007
1742766315309178000,12.36017822265625,0.09111785888671875,0.6170157194137573,0.6257221698760986
1742766315323561700,12.374561767578125,2.1297712326049805,0.18385450541973114,-0.45899391174316406
1742766315337945000,12.388945068359375,0.6820087432861328,0.2560339868068695,-0.33304011821746826
1742766315352328700,12.40332861328125,-1.0911331176757812,-0.1230066791176796,0.20864713191986084
1742766315366712000,12.417712158203125,-0.9389505386352539,0.5540691614151001,-0.8893550634384155
1742766315381095700,12.432095703125,-1.1352243423461914,0.34853339195251465,0.0030663013458251953
1742766315395479300,12.446479248046876,1.7167034149169922,-0.4810071885585785,0.25836893916130066
1742766315409862700,12.460862548828125,-0.9176063537597656,-0.06273476779460907,-1.01956045627594
1742766315424246300,12.475246337890624,-1.152430534362793,0.35718852281570435,-0.920201301574707
1742766315438630000,12.4896298828125,-1.422750473022461,-0.25883546471595764,0.1556939035654068
1742766315453013200,12.50401318359375,0.19776344299316406,0.08629517257213593,-0.547303318977356
1742766315467396900,12.51839697265625,-0.06935405731201172,-0.204330712556839,0.3926830589771271
1742766315481780500,12.532780517578125,0.785029411315918,-0.19162580370903015,-1.19235360622406
1742766315496163800,12.547163818359374,-1.1505956649780273,0.02440337836742401,0.28506433963775635
1742766315510547500,12.56154736328125,-3.0375313758850098,-0.26182955503463745,0.5652311444282532
1742766315524930800,12.575930908203125,0.2995328903198242,-0.016363725066184998,0.24023652076721191
1742766315539314400,12.590314453125,0.4869194030761719,0.10409966111183167,-0.7960463762283325
1742766315553698000,12.604697998046875,0.6901168823242188,0.36911165714263916,-0.49421069025993347
1742766315568081400,12.619081298828124,0.10917186737060547,-0.3301548957824707,-0.11564067006111145
1742766315582465000,12.633465087890626,0.08153438568115234,0.19603538513183594,0.4213666319847107
1742766315596848600,12.6478486328125,2.8727779388427734,-0.6245812177658081,0.3150610625743866
1742766315611232000,12.66223193359375,2.7708282470703125,0.07535190880298615,-0.5670540928840637
1742766315625615600,12.67661572265625,1.3546762466430664,0.09869489073753357,0.24206623435020447
1742766315639999200,12.690999267578125,-0.5351905822753906,0.2739328145980835,0.7377821207046509
1742766315654382600,12.705382568359376,0.7489509582519531,0.8719590306282043,-0.5813025832176208
1742766315668766200,12.71976611328125,-1.7211599349975586,0.2337653487920761,-0.21872663497924805
1742766315683149600,12.734149658203124,0.6222505569458008,-0.5402623414993286,0.4175565838813782
1742766315697533200,12.748533203125,0.32098960876464844,0.3903181552886963,-0.5036460757255554
1742766315711916800,12.762916748046875,0.015379905700683594,0.1277598738670349,0.4622221291065216
1742766315726300200,12.777300048828126,2.733549118041992,-0.5906957983970642,0.07741235196590424
1742766315740683800,12.791683837890625,0.24132728576660156,0.45836982131004333,-0.053613096475601196
1742766315755067400,12.8060673828125,-1.2420845031738281,0.47191503643989563,-0.3413601517677307
1742766315769450800,12.82045068359375,0.3344306945800781,-0.10802466422319412,0.3308696150779724
1742766315783834400,12.83483447265625,-0.4226551055908203,0.07987150549888611,0.12403775751590729
1742766315798218000,12.849218017578124,-0.30476856231689453,0.02961041033267975,0.3247051239013672
1742766315812601300,12.863601318359375,1.0942964553833008,0.4712429642677307,-0.44252848625183105
1742766315826985000,12.87798486328125,0.7722692489624023,0.5157119035720825,-0.3265034854412079
1742766315841368300,12.892368408203126,0.5306587219238281,0.11404013633728027,0.5873770713806152
1742766315855752000,12.906751953125,0.5835790634155273,0.09812310338020325,0.34373730421066284
1742766315870135600,12.921135498046874,-0.18819427490234375,0.49130862951278687,-0.2900254726409912
1742766315884519000,12.935518798828125,1.3526544570922852,0.10589970648288727,0.8023812174797058
1742766315898902500,12.949902587890625,0.08975791931152344,0.09941866993904114,0.36223167181015015
1742766315913286100,12.9642861328125,-1.511260986328125,0.7483554482460022,-0.051651209592819214
1742766315927669500,12.97866943359375,-2.092667579650879,0.26013076305389404,0.20573291182518005
1742766315942053000,12.99305322265625,-1.4935178756713867,0.255705863237381,0.3259815573692322
1742766315956436500,13.0074365234375,-1.2559700012207031,-0.4067308306694031,0.1113327294588089
1742766315970820000,13.021820068359375,0.4009847640991211,0.11604633927345276,0.23088261485099792
1742766315985203700,13.03620361328125,1.167740821838379,0.13475479185581207,0.1766459047794342
1742766315999587000,13.050587158203125,-1.6351327896118164,0.03257574141025543,-0.3434208929538727
1742766316013970700,13.064970703125,-1.1650676727294922,-0.5993115901947021,-0.18887808918952942
1742766316028354000,13.07935400390625,0.8707265853881836,-0.49904268980026245,0.9157847166061401
1742766316042737700,13.093737548828125,0.45939064025878906,0.4068995714187622,-0.940620481967926
1742766316057121300,13.108121337890625,-1.385624885559082,-0.1438344419002533,0.4573367238044739
1742766316071504600,13.122504638671876,1.5147638320922852,-0.480316162109375,0.009379327297210693
1742766316085888300,13.13688818359375,0.48362159729003906,0.16737377643585205,-0.7878376245498657
1742766316100271900,13.15127197265625,2.5571413040161133,0.1550774872303009,0.40917062759399414
1742766316114655200,13.1656552734375,2.4296369552612305,-0.25908368825912476,-0.3821299374103546
1742766316129038800,13.180038818359375,0.6215238571166992,0.48620983958244324,-0.4057469069957733
1742766316143422500,13.19442236328125,0.7962732315063477,-0.1000799909234047,0.044010505080223083
1742766316157805800,13.208805908203125,3.4209537506103516,0.2459978461265564,-0.06816917657852173
1742766316172189400,13.223189453125,1.3944225311279297,-0.21382269263267517,-0.08987286686897278
1742766316186572800,13.23757275390625,1.5465078353881836,-0.140183225274086,-0.3685292899608612
1742766316200956400,13.251956298828125,-0.8779735565185547,0.2635267972946167,-0.7093175649642944
1742766316215340000,13.266340087890624,0.22976970672607422,0.4105648398399353,-0.0708959698677063
1742766316229723400,13.280723388671875,0.4872312545776367,-0.4927784502506256,-0.24586787819862366
1742766316244107000,13.29510693359375,3.5220489501953125,0.019332006573677063,-0.0951056182384491
1742766316258490600,13.30949072265625,0.6651124954223633,0.31183916330337524,-0.23790380358695984
1742766316272874000,13.3238740234375,0.5610895156860352,0.5698515176773071,-0.2792873978614807
1742766316287257600,13.338257568359374,-0.7497100830078125,-0.39701980352401733,0.44705134630203247
1742766316301641200,13.35264111328125,-0.2746400833129883,0.762011706829071,-0.10929834842681885
1742766316316024600,13.367024658203125,-1.3366260528564453,-0.015243560075759888,-0.694690465927124
1742766316330408200,13.381408203125,-1.063192367553711,0.009623542428016663,0.5803432464599609
1742766316344791600,13.39579150390625,-1.647578239440918,0.4032386541366577,0.3383046090602875
1742766316359175200,13.410175048828124,-0.08367729187011719,0.036179378628730774,0.506351888179779
1742766316373558800,13.424558837890626,-0.33698272705078125,0.3565431237220764,-0.28805071115493774
1742766316387942100,13.438942138671875,-2.050251007080078,1.0133943557739258,0.10868088901042938
1742766316402325800,13.45332568359375,1.5199966430664062,-0.8483192324638367,0.8110160827636719
1742766316416709400,13.46770947265625,0.3388376235961914,-0.027195870876312256,0.2068619281053543
1742766316431092700,13.4820927734375,-0.6703996658325195,0.19008885324001312,-0.6757524013519287
1742766316445476400,13.496476318359376,-1.224644660949707,-0.09816697239875793,0.8241822719573975
1742766316459860000,13.51085986328125,1.0054454803466797,0.11791716516017914,0.0945412665605545
1742766316474243300,13.525243408203124,0.8928632736206055,-0.4877684712409973,0.45741671323776245
1742766316488627000,13.539626953125,1.9323129653930664,0.5768893361091614,0.0037935972213745117
1742766316503010300,13.55401025390625,-0.732823371887207,0.41448086500167847,-0.37247148156166077
1742766316517394000,13.568393798828126,0.5536623001098633,-0.37992072105407715,-0.18285226821899414
1742766316531777500,13.582777587890625,0.12158489227294922,0.08659225702285767,-0.5836418867111206
1742766316546161000,13.597160888671874,0.16399002075195312,0.4018931984901428,0.918903112411499
1742766316560544500,13.61154443359375,1.3571958541870117,-0.2544804513454437,-0.19054058194160461
1742766316574928000,13.625927978515625,0.682124137878418,-0.3247718811035156,-1.1165916919708252
1742766316589311500,13.6403115234375,-0.5191249847412109,-0.8328033685684204,0.1140129417181015
1742766316603695000,13.654695068359375,1.0429134368896484,0.3919268548488617,-0.4643386900424957
1742766316618078500,13.669078369140625,0.9833259582519531,-0.6430094242095947,-0.1729063093662262
1742766316632462000,13.683462158203126,2.4956512451171875,-0.021563738584518433,0.4742663502693176
1742766316646845700,13.697845703125,0.28803443908691406,0.5804007649421692,-1.3570047616958618
1742766316661229000,13.71222900390625,0.34317588806152344,0.20438526570796967,-0.5774434804916382
1742766316675612700,13.72661279296875,-1.5213861465454102,0.0959557592868805,0.7530595064163208
1742766316689996000,13.74099609375,-0.5951070785522461,0.5660475492477417,-0.2145305573940277
1742766316704379600,13.755379638671876,-1.1328144073486328,-0.022667959332466125,-1.370955228805542
1742766316718763300,13.76976318359375,-1.4629688262939453,0.006718248128890991,0.07266122102737427
1742766316733146600,13.784146728515625,-0.8759021759033203,-0.19787731766700745,0.5366147756576538
1742766316747530200,13.7985302734375,2.020956039428711,-0.007039070129394531,0.028001636266708374
1742766316761913900,13.812913818359375,0.49599647521972656,-0.35530897974967957,-1.0747792720794678
1742766316776297200,13.827297119140624,0.4630556106567383,0.27599257230758667,0.7290359735488892
1742766316790680800,13.841680908203125,-1.0598421096801758,-0.059684231877326965,-0.03863784670829773
1742766316805064400,13.856064453125,0.9203910827636719,0.1000804603099823,0.45868563652038574
1742766316819447800,13.87044775390625,0.0244903564453125,0.4526602327823639,-0.29699066281318665
1742766316833831400,13.88483154296875,-0.9920186996459961,0.3022380471229553,-0.1392209827899933
1742766316848214800,13.89921484375,-1.5938949584960938,-0.2675299644470215,0.01530715823173523
1742766316862598400,13.913598388671875,-1.3835363388061523,-0.23216821253299713,0.25561225414276123
1742766316876982000,13.92798193359375,-2.58742094039917,0.27191030979156494,-0.04963254928588867
1742766316891365400,13.942365478515624,0.07541942596435547,0.2158850133419037,0.2461758852005005
1742766316905749000,13.9567490234375,-0.6901941299438477,-0.12727440893650055,0.017909705638885498
1742766316920132600,13.971132568359375,-2.0365395545959473,0.4771280586719513,-0.22619715332984924
1742766316934516000,13.985515869140626,0.0676422119140625,-0.1548902541399002,0.23713533580303192
1742766316948899600,13.999899658203125,0.2346820831298828,0.09840741753578186,-0.30250391364097595
1742766316963283200,14.014283203125,-0.7352800369262695,0.28988116979599,0.06266006827354431
1742766316977666600,14.02866650390625,-0.8363275527954102,0.493279367685318,-0.7960838079452515
1742766316992050200,14.04305029296875,1.9692821502685547,0.12445901334285736,0.04585185647010803
1742766317006433500,14.05743359375,0.15422630310058594,-0.2008690983057022,-0.4083200991153717
1742766317020817200,14.071817138671875,0.967616081237793,-0.06528149545192719,0.24946773052215576
1742766317035200800,14.08620068359375,-0.6471004486083984,0.07801786065101624,-1.0663764476776123
1742766317049584000,14.100584228515626,2.0291643142700195,-0.260390043258667,0.238808274269104
1742766317063967700,14.1149677734375,1.3641719818115234,-0.36769211292266846,0.48050543665885925
1742766317078351400,14.129351318359374,-0.5331563949584961,0.41048121452331543,0.22938553988933563
1742766317092734700,14.143734619140625,-1.0617952346801758,0.10631689429283142,-0.982487142086029
1742766317107118300,14.158118408203125,-0.24030017852783203,-0.04271811246871948,-0.07423907518386841
1742766317121501700,14.172501708984376,-2.1699905395507812,-0.1770068109035492,0.02257293462753296
1742766317135885300,14.18688525390625,0.15461254119873047,0.17713403701782227,-0.45564112067222595
1742766317150269000,14.20126904296875,-0.0912008285522461,-0.31565576791763306,-0.11792463064193726
1742766317164652300,14.21565234375,0.8034610748291016,0.047062188386917114,0.5876054763793945
1742766317179036000,14.230035888671875,1.9872512817382812,-0.5984483361244202,0.7957623600959778
1742766317193419500,14.24441943359375,1.486830711364746,-0.009000524878501892,0.6795504093170166
1742766317207803000,14.258802978515625,-0.6565666198730469,0.47363775968551636,-0.4453863799571991
1742766317222186500,14.2731865234375,-0.21480369567871094,0.4376963675022125,-0.23464253544807434
1742766317236569900,14.28756982421875,0.46940040588378906,-0.49578070640563965,0.7235514521598816
1742766317250953500,14.301953369140625,-1.2744665145874023,0.04492422938346863,-0.11240416765213013
1742766317265337000,14.316337158203124,0.3709440231323242,0.10260128974914551,-0.12385660409927368
1742766317279720400,14.330720458984375,-0.3170604705810547,-0.07032205164432526,-0.13608911633491516
1742766317294104000,14.34510400390625,-0.5661640167236328,-0.28522640466690063,0.03517457842826843
1742766317308487700,14.35948779296875,0.9737958908081055,-0.2322111874818802,0.21085579693317413
1742766317322871000,14.37387109375,3.116570472717285,0.11369860172271729,-0.30721935629844666
1742766317337254700,14.388254638671874,1.5747642517089844,0.01774686574935913,0.0942586213350296
1742766317351638000,14.402637939453125,0.7030210494995117,0.1843455731868744,0.01849690079689026
1742766317366021600,14.417021728515625,-0.6223239898681641,-0.02485179901123047,-0.7300447225570679
1742766317380405200,14.4314052734375,0.06389808654785156,0.5344584584236145,-0.06479519605636597
1742766317394788600,14.44578857421875,-0.7926311492919922,0.002197563648223877,-0.055154263973236084
1742766317409172200,14.460172119140625,0.5988521575927734,0.07345855236053467,-0.09038442373275757
1742766317423555800,14.474555908203126,-2.165088176727295,0.35381412506103516,-0.9671976566314697
1742766317437939200,14.488939208984375,-1.755453109741211,0.44706690311431885,1.1871980428695679
1742766317452322800,14.50332275390625,-1.3730144500732422,0.27306652069091797,0.13420264422893524
1742766317466706200,14.5177060546875,2.551992416381836,-0.3579901158809662,0.8554637432098389
1742766317481089800,14.53208984375,1.2446184158325195,0.3511110246181488,-0.7270189523696899
1742766317495473400,14.546473388671876,-3.027864456176758,0.4125288724899292,0.44735535979270935
1742766317509856800,14.560856689453125,-1.9734811782836914,-0.20465171337127686,0.3754618465900421
1742766317524240400,14.575240478515624,-1.7072620391845703,-0.1954108476638794,1.2766252756118774
1742766317538624000,14.5896240234375,0.33440303802490234,0.36486896872520447,0.15460383892059326
1742766317553007400,14.60400732421875,-0.5859212875366211,0.5975425243377686,-0.42796745896339417
1742766317567391000,14.618390869140624,-1.6612281799316406,-0.2860131859779358,-0.2860502302646637
1742766317581774600,14.632774658203125,-0.8613929748535156,-0.8181664943695068,0.8099313974380493
1742766317596158000,14.647157958984375,-0.14542579650878906,0.43019986152648926,-0.24932196736335754
1742766317610541600,14.66154150390625,1.6703834533691406,-0.7857108116149902,-0.49320176243782043
1742766317624925000,14.675925048828125,0.3026285171508789,-0.8183984160423279,0.375853031873703
1742766317639308500,14.69030859375,-1.936418056488037,0.08291482925415039,0.22362494468688965
1742766317653692200,14.704692138671875,2.3928136825561523,-0.4805999994277954,-0.03897705674171448
1742766317668075500,14.719075439453125,2.883856773376465,-0.22695940732955933,0.36783117055892944
1742766317682459100,14.733459228515626,0.768122673034668,-0.07036949694156647,-0.278763085603714
1742766317696842800,14.7478427734375,1.9855718612670898,0.2987973093986511,-0.8000046014785767
1742766317711226000,14.76222607421875,1.825453758239746,-0.12659594416618347,-0.5920895934104919
1742766317725609700,14.776609619140626,0.5551185607910156,-0.08209580183029175,-0.7781901359558105
1742766317739993300,14.790993408203125,-0.4658050537109375,-0.24997717142105103,0.8070862293243408
1742766317754376700,14.805376708984374,1.9947690963745117,-0.07156555354595184,-0.46216490864753723
1742766317768760300,14.81976025390625,0.7385015487670898,0.20479503273963928,-0.4662494361400604
1742766317783143700,14.834143798828125,0.2881937026977539,0.025391489267349243,0.04776337742805481
1742766317797527300,14.84852734375,-1.2894763946533203,0.3169765770435333,0.13977836072444916
1742766317811911000,14.862910888671875,-3.002361297607422,0.055553287267684937,-1.051680564880371
1742766317826294300,14.877294189453124,-0.8671636581420898,0.06212630867958069,0.03571578860282898
1742766317840678000,14.891677978515625,0.009005546569824219,-0.07517626881599426,0.5643724203109741
1742766317855061200,14.906061279296875,-1.6893482208251953,-0.09156763553619385,0.5108784437179565
1742766317869444900,14.92044482421875,-1.79193115234375,0.24253389239311218,-0.2073492407798767
1742766317883828500,14.934828369140625,1.3892631530761719,-0.4543435573577881,0.6993932127952576
1742766317898211800,14.9492119140625,-0.4265899658203125,-0.10339508950710297,0.07883186638355255
1742766317912595500,14.963595458984376,-2.327502727508545,0.4332689046859741,1.571088433265686
1742766317926979000,14.97797900390625,-0.4768524169921875,0.3040086030960083,-0.2608908712863922
1742766317941362400,14.992362548828124,0.4708404541015625,0.45444026589393616,-0.011108845472335815
1742766317955746000,15.00674609375,-1.1987180709838867,-0.19630706310272217,0.71226966381073
1742766317970129400,15.02112939453125,0.5533533096313477,0.5402474403381348,-0.6072669625282288
1742766317984513000,15.035512939453126,0.5450439453125,0.4626947343349457,-0.05917707085609436
1742766317998896600,15.049896728515625,0.32087135314941406,-0.03974965214729309,0.439736008644104
1742766318013280000,15.064280029296874,0.2727508544921875,0.3776126205921173,-0.5634756088256836
1742766318027663600,15.07866357421875,1.6731510162353516,-0.10666544735431671,0.5023267865180969
1742766318042047200,15.093047119140625,2.2858009338378906,0.17775079607963562,0.49711140990257263
1742766318056430600,15.1074306640625,-2.94242525100708,0.11065748333930969,-0.7201180458068848
1742766318070814200,15.121814208984375,0.07952499389648438,-0.6804277896881104,0.5516102910041809
1742766318085197800,15.13619775390625,-0.3279409408569336,0.3164273500442505,-0.7025630474090576
1742766318099581200,15.150581298828126,-0.4260406494140625,-0.07034890353679657,0.08149436116218567
1742766318113964800,15.16496484375,0.5857429504394531,0.040388286113739014,-0.5193802118301392
1742766318128348200,15.17934814453125,1.607081413269043,-0.2096451222896576,-0.28459519147872925
1742766318142731800,15.193731689453125,0.47513484954833984,-0.7481545209884644,-0.4626689851284027
1742766318157115400,15.208115478515625,1.0676822662353516,-0.3575870394706726,0.6739035844802856
1742766318171498800,15.222498779296876,0.9064817428588867,0.09821978211402893,-0.2061598300933838
1742766318185882400,15.23688232421875,-0.3141756057739258,-0.435263991355896,-0.5697329044342041
1742766318200266000,15.251265869140624,-0.33917808532714844,0.4570218622684479,-0.9875049591064453
1742766318214649300,15.2656494140625,1.6137819290161133,-0.12584392726421356,0.5516067743301392
1742766318229033000,15.280032958984375,0.31499195098876953,0.04913321137428284,-0.2514530122280121
1742766318243416600,15.29441650390625,-0.2667684555053711,0.45482736825942993,0.1360442191362381
1742766318257800000,15.308800048828125,0.5185976028442383,0.0439206063747406,-0.9265446662902832
1742766318272183600,15.32318359375,-0.044905662536621094,-0.07852555811405182,0.01481097936630249
1742766318286567000,15.33756689453125,-0.39416980743408203,-0.12281273305416107,0.009595483541488647
1742766318300950500,15.351950439453125,-0.3754291534423828,0.13439279794692993,0.7012370824813843
1742766318315334100,15.366334228515624,1.1009578704833984,0.5043426752090454,-0.11672079563140869
1742766318329717500,15.380717529296875,-1.188399314880371,-0.037817999720573425,-0.17146036028862
1742766318344101000,15.39510107421875,-0.2033519744873047,-0.43895381689071655,0.9511067867279053
1742766318358484700,15.409484619140626,0.32845497131347656,-0.45654892921447754,0.2352181077003479
1742766318372868000,15.4238681640625,0.5901651382446289,0.33971938490867615,-0.03503608703613281
1742766318387251700,15.438251708984374,1.0641117095947266,-0.2009429633617401,0.6502918004989624
1742766318401635000,15.452635009765626,1.6848602294921875,0.3557584881782532,-0.354398250579834
1742766318416018700,15.467018798828125,-1.0389814376831055,0.10030308365821838,-0.3225056827068329
1742766318430402300,15.48140234375,0.33592796325683594,-0.011296391487121582,0.2378532737493515
1742766318444785700,15.49578564453125,-0.25109004974365234,0.125823974609375,-0.8827661871910095
1742766318459169300,15.510169189453125,-0.15146636962890625,-0.35717618465423584,0.006960839033126831
1742766318473552600,15.524552734375,-0.897465705871582,0.5077559947967529,-1.0248606204986572
1742766318487936300,15.538936279296875,-1.358830451965332,0.05286732316017151,0.1840321272611618
1742766318502319900,15.55331982421875,0.716914176940918,0.5780001878738403,-0.8815279006958008
1742766318516703200,15.567703125,-0.022619247436523438,-0.519187331199646,-0.49578967690467834
1742766318531086800,15.5820869140625,0.9164590835571289,0.31006720662117004,-0.9104503393173218
1742766318545470500,15.596470458984374,1.441624641418457,0.4950876832008362,0.07018062472343445
1742766318559853800,15.610853759765625,-0.1571054458618164,0.32256385684013367,-0.3552388846874237
1742766318574237400,15.625237548828125,-1.16326904296875,-0.09709818661212921,-0.15591809153556824
1742766318588621000,15.63962109375,-0.8921175003051758,0.2885825037956238,-0.16780096292495728
1742766318603004400,15.65400439453125,0.3623018264770508,-0.4402068257331848,0.15668754279613495
1742766318617388000,15.668387939453124,-1.1566944122314453,-0.07038386166095734,-0.36815327405929565
1742766318631771400,15.682771484375,-3.876760959625244,0.00014165043830871582,0.44038861989974976
1742766318646155000,15.697155029296875,-0.3872518539428711,0.0982981026172638,-0.5724977254867554
1742766318660538600,15.71153857421875,-0.5309391021728516,0.10820245742797852,-0.2866162061691284
1742766318674922000,15.725921875,-0.04091072082519531,-0.7765316367149353,0.9789606332778931
1742766318689305600,15.7403056640625,0.28254222869873047,0.210720032453537,0.1755661517381668
1742766318703689200,15.754689208984376,-0.05766868591308594,-0.3726711869239807,0.24434490501880646
1742766318718072600,15.769072509765625,-0.5420598983764648,-0.19690918922424316,-0.6710229516029358
1742766318732456200,15.783456298828124,-1.5251226425170898,-0.4810939431190491,0.2651461362838745
1742766318746839800,15.79783984375,2.1498565673828125,0.15174740552902222,0.12153412401676178
1742766318761223200,15.81222314453125,1.8443727493286133,0.2344929277896881,-0.5662673711776733
1742766318775606800,15.826606689453126,1.954503059387207,0.2825205624103546,-0.40839701890945435
1742766318789990100,15.840990234375,0.8406257629394531,-0.5948898792266846,-0.36371883749961853
1742766318804373800,15.855373779296874,-0.22080326080322266,-0.4071766138076782,-0.9523937106132507
1742766318818757400,15.86975732421875,2.0308542251586914,0.2987935245037079,-0.1906033456325531
1742766318833140700,15.884140625,1.9840564727783203,-0.011742502450942993,-0.1792604923248291
1742766318847524400,15.8985244140625,1.5373115539550781,-0.3568476736545563,-0.6051254868507385
1742766318861908000,15.912907958984375,-1.5139484405517578,0.5521891713142395,-0.9280081987380981
1742766318876291300,15.927291259765624,3.0177106857299805,-0.09182064235210419,0.09936714172363281
1742766318890675000,15.941675048828126,2.2420034408569336,-0.17225578427314758,-0.9049521684646606
1742766318905058300,15.956058349609375,-3.5707144737243652,0.04718810319900513,0.5409212708473206
1742766318919442000,15.97044189453125,-0.1333913803100586,0.2807685136795044,-0.9523333311080933
1742766318933825500,15.984825439453125,1.9694271087646484,-0.19729894399642944,0.8606569170951843
1742766318948209000,15.999208984375,-0.39514923095703125,0.18592232465744019,0.712509274482727
1742766318962592500,16.013592529296876,-1.6770105361938477,0.9455596804618835,-0.424833208322525
1742766318976976000,16.027975830078127,-1.742055892944336,0.7940900325775146,0.17846734821796417
1742766318991359500,16.042359375,-1.5320634841918945,-0.3844667077064514,-0.16576316952705383
1742766319005743000,16.0567431640625,-2.46358060836792,0.408708781003952,0.10847945511341095
1742766319020126500,16.07112646484375,-2.0765085220336914,0.3248433470726013,0.8678653240203857
1742766319034510000,16.085510009765624,1.3810863494873047,-0.1492496132850647,-0.1224554181098938
1742766319048893700,16.099893798828123,0.6524057388305664,0.09879285097122192,-0.10678690671920776
1742766319063277000,16.114277099609374,-1.7860994338989258,-0.15785205364227295,0.8104926943778992
1742766319077660700,16.12866064453125,1.1652030944824219,-0.5171025395393372,0.4384193420410156
1742766319092044300,16.143044189453125,-0.053282737731933594,0.39878952503204346,-0.08663749694824219
1742766319106427600,16.157427734375,-1.9023981094360352,-0.06600828468799591,0.05178496241569519
1742766319120811300,16.171811279296875,-0.4315681457519531,-0.03437143564224243,0.010398656129837036
1742766319135194600,16.186194580078126,-0.852778434753418,-0.48620903491973877,-0.02735966444015503
1742766319149578200,16.200578125,1.2432470321655273,-0.2354055941104889,0.17965315282344818
1742766319163961900,16.2149619140625,-0.06307792663574219,-0.20071756839752197,-0.08269885182380676
1742766319178345200,16.22934521484375,1.5761985778808594,-0.452866792678833,-0.16147786378860474
1742766319192728800,16.243728759765624,-0.4462766647338867,-0.45397618412971497,-0.3392558693885803
1742766319207112400,16.258112548828127,0.35703372955322266,0.5090553164482117,-0.3935631215572357
1742766319221495800,16.272495849609374,1.037217140197754,-0.23711317777633667,0.3050394654273987
1742766319235879400,16.28687939453125,-0.4752798080444336,-0.02591043710708618,-0.40936586260795593
1742766319250263000,16.301262939453125,-0.5440874099731445,-0.10602959990501404,-0.9175678491592407
1742766319264646400,16.315646484375,1.9957895278930664,-0.03817911446094513,0.01630505919456482
1742766319279030000,16.330030029296875,-1.0446853637695312,0.13203021883964539,-0.3759489059448242
1742766319293413400,16.344413330078126,-0.8666849136352539,0.09615615010261536,0.3059135675430298
1742766319307797000,16.358796875,-0.8881750106811523,-0.1507037878036499,-0.5257017612457275
1742766319322180600,16.3731806640625,-0.6735296249389648,0.1638416349887848,-0.05224251747131348
1742766319336564000,16.38756396484375,-1.5534133911132812,-0.18400751054286957,0.5623825788497925
1742766319350947600,16.401947509765623,0.45432567596435547,-0.3783766031265259,0.3195243775844574
1742766319365331200,16.416331298828126,0.05463981628417969,0.37125489115715027,-0.7044868469238281
1742766319379714600,16.430714599609374,2.399287223815918,-0.3273954391479492,0.2992231845855713
1742766319394098200,16.44509814453125,-0.4823312759399414,-0.1872439682483673,0.17459140717983246
1742766319408481500,16.4594814453125,-0.9419822692871094,0.4169059097766876,0.8477966785430908
1742766319422865200,16.473865234375,-2.5728344917297363,0.26920217275619507,-0.48675820231437683
1742766319437248800,16.488248779296875,-0.9848861694335938,0.5447269678115845,-0.5761060118675232
1742766319451632000,16.502632080078126,-1.7810392379760742,-0.38243669271469116,0.6788774728775024
1742766319466015700,16.517015625,-1.2924489974975586,-0.1581900417804718,0.6261805295944214
1742766319480399000,16.531399169921876,1.9606447219848633,0.7159484624862671,-0.028248131275177002
1742766319494782700,16.54578271484375,1.8073768615722656,-0.11511854827404022,0.23665039241313934
1742766319509166300,16.560166259765627,0.6141958236694336,0.07493901252746582,0.16917821764945984
1742766319523549700,16.5745498046875,-0.33567333221435547,0.6081511974334717,0.179976686835289
1742766319537933300,16.588933349609373,1.3979310989379883,-0.15569162368774414,0.04884931445121765
1742766319552317000,16.60331689453125,1.5236358642578125,0.15735918283462524,0.18271763622760773
1742766319566700300,16.6177001953125,-0.8340082168579102,-0.25573089718818665,0.11394225060939789
1742766319581084000,16.632083984375,-0.15883827209472656,-0.22336861491203308,-0.3059694766998291
1742766319595467500,16.646467529296874,1.6497316360473633,-0.15560117363929749,-0.09425419569015503
1742766319609851000,16.660850830078125,-0.8694400787353516,-0.5239282846450806,-0.6368509531021118
1742766319624234500,16.675234375,-0.7132425308227539,-0.1209094226360321,0.09922082722187042
1742766319638617900,16.689617919921876,-0.6659212112426758,-0.48329007625579834,-0.10433214902877808
1742766319653001500,16.70400146484375,1.1099624633789062,0.28649333119392395,-0.31292960047721863
1742766319667385000,16.718385009765626,-1.1429004669189453,-0.24312922358512878,0.25874924659729004
1742766319681768400,16.7327685546875,1.1949071884155273,-0.2208244651556015,-0.47284913063049316
1742766319696152000,16.747152099609377,-0.650914192199707,-0.1634387969970703,-0.6696242094039917
1742766319710535700,16.76153564453125,-0.3062477111816406,0.3255684971809387,0.27024275064468384
1742766319724919000,16.7759189453125,-0.20904254913330078,-0.20066866278648376,0.4858551025390625
1742766319739302700,16.790302734375,0.4264793395996094,0.16651281714439392,0.7691479325294495
1742766319753686300,16.804686279296874,-0.6520395278930664,-0.2958046495914459,-0.5333742499351501
1742766319768069600,16.819069580078125,0.7884044647216797,0.5662853121757507,0.22298352420330048
1742766319782453200,16.833453369140624,-3.7814555168151855,-0.017337441444396973,1.0258179903030396
1742766319796836600,16.847836669921875,-0.0852365493774414,0.4409574568271637,0.056872159242630005
1742766319811220200,16.86222021484375,-0.698974609375,0.44398829340934753,-0.6265497207641602
1742766319825603800,16.876603759765626,-0.6945657730102539,-0.09395280480384827,0.14263392984867096
1742766319839987200,16.8909873046875,-1.376866340637207,-0.3506465256214142,0.05286851525306702
1742766319854370800,16.905370849609376,-2.6470589637756348,0.07929739356040955,0.6754224300384521
1742766319868754200,16.919754150390624,0.18128681182861328,0.590736985206604,0.16352030634880066
1742766319883137800,16.9341376953125,-0.032726287841796875,-0.14130806922912598,0.12757138907909393
1742766319897521400,16.948521484375,-0.7441434860229492,-0.1708223819732666,0.241048663854599
1742766319911904800,16.96290478515625,-1.815253734588623,-0.3764405846595764,-0.02619868516921997
1742766319926288400,16.977288330078125,0.5866832733154297,0.358623206615448,0.15197297930717468
1742766319940672000,16.991672119140624,1.4464111328125,-0.032223910093307495,-0.22282156348228455
1742766319955055400,17.006055419921875,0.8924112319946289,-0.5721150636672974,0.386391282081604
1742766319969439000,17.02043896484375,1.4876985549926758,0.2986062467098236,-0.8869554996490479
1742766319983822300,17.034822265625,0.3962554931640625,0.2555543780326843,0.5112094283103943
1742766319998206000,17.0492060546875,0.32979774475097656,0.5820891857147217,0.11199502646923065
1742766320012589600,17.063589599609376,0.2121744155883789,-0.019656896591186523,0.009280741214752197
1742766320026973000,17.077972900390623,-0.5078201293945312,-0.5782853364944458,-0.98597252368927
1742766320041356500,17.0923564453125,2.8759145736694336,0.25902992486953735,0.5146231651306152
1742766320055740200,17.106740234375,-0.09191322326660156,-0.012983828783035278,0.2847696542739868
1742766320070123500,17.12112353515625,0.9258279800415039,0.060484468936920166,0.8509464263916016
1742766320084507100,17.135507080078124,-0.3886995315551758,0.14628702402114868,-0.37577253580093384
1742766320098890800,17.149890869140624,1.627741813659668,-0.37598276138305664,0.1700066179037094
1742766320113274000,17.164274169921875,-0.3680086135864258,-0.7935775518417358,0.20802992582321167
1742766320127657700,17.17865771484375,-0.48651885986328125,-0.25991201400756836,1.1010100841522217
1742766320142041000,17.193041015625,-1.0080642700195312,0.26607367396354675,0.26957952976226807
1742766320156424700,17.2074248046875,0.44457340240478516,-0.16694991290569305,0.5060828328132629
1742766320170808300,17.221808349609375,1.0071706771850586,-0.7871023416519165,-0.028771579265594482
1742766320185191700,17.236191650390627,1.0373725891113281,-0.4656071364879608,0.2764723300933838
1742766320199575300,17.2505751953125,0.3085050582885742,0.39075320959091187,0.13097445666790009
1742766320213959000,17.264958984375,1.2194385528564453,0.15587705373764038,0.6359025239944458
1742766320228342300,17.27934228515625,0.024993896484375,0.025916337966918945,0.6470832824707031
1742766320242726000,17.293725830078124,0.8309125900268555,0.11303633451461792,-0.4882405698299408
1742766320257109200,17.308109130859375,0.5314626693725586,0.12528923153877258,-0.7795233130455017
1742766320271492900,17.322492919921874,-0.9694404602050781,0.25174668431282043,-0.010643303394317627
1742766320285876500,17.33687646484375,-0.9283008575439453,-0.5981409549713135,1.0300931930541992
1742766320300259800,17.351259765625,1.175797462463379,-0.49695855379104614,-1.1012163162231445
1742766320314643500,17.3656435546875,1.2308673858642578,0.15837374329566956,-0.3497823178768158
1742766320329026800,17.38002685546875,2.145371437072754,-0.37596169114112854,0.10337068140506744
1742766320343410400,17.394410400390626,0.8123931884765625,-0.12272612750530243,-0.24456050992012024
1742766320357794000,17.4087939453125,0.8462295532226562,-0.36206313967704773,-0.19477137923240662
1742766320372177400,17.423177490234377,1.678466796875,0.16098156571388245,-0.46627408266067505
1742766320386561000,17.43756103515625,0.9820518493652344,0.3445972502231598,-0.0017187893390655518
1742766320400944600,17.451944580078123,-1.347092628479004,0.1251642107963562,-0.013341754674911499
1742766320415328000,17.466327880859374,-2.9301319122314453,0.0390128493309021,-0.9558866620063782
1742766320429711600,17.480711669921874,-0.7560863494873047,0.24345806241035461,1.0354588031768799
1742766320444095200,17.49509521484375,-0.37330150604248047,-0.5802290439605713,-0.2475428283214569
1742766320458478600,17.509478515625,-1.510833740234375,-0.1583584100008011,0.999464213848114
1742766320472862200,17.5238623046875,-1.7659149169921875,0.7118682861328125,0.1796269714832306
1742766320487245600,17.53824560546875,-0.12402534484863281,0.4621540904045105,-0.08569777011871338
1742766320501629200,17.552629150390626,0.125,0.09449374675750732,0.26500433683395386
1742766320516012800,17.5670126953125,-0.21166419982910156,0.4035111367702484,0.7211551666259766
1742766320530396200,17.581396240234376,-1.3358697891235352,1.0419371128082275,-0.4823077321052551
1742766320544779800,17.59577978515625,-0.10387611389160156,0.19377824664115906,0.6843199729919434
1742766320559163400,17.610163330078127,-0.9917392730712891,-0.5396867394447327,-0.03054940700531006
1742766320573546800,17.624546630859374,-1.2751283645629883,-0.2670931816101074,0.17987607419490814
1742766320587930400,17.638930419921873,-1.0583114624023438,0.2722666263580322,-0.25061798095703125
1742766320602313700,17.653313720703125,-1.1591625213623047,-0.11506040394306183,0.24128660559654236
1742766320616697300,17.667697265625,-1.0388460159301758,0.04481792449951172,0.5909416675567627
1742766320631081000,17.6820810546875,-1.442178726196289,0.06340250372886658,-0.2988107204437256
1742766320645464300,17.69646435546875,2.031344413757324,-0.2776765823364258,-0.7187159061431885
1742766320659848000,17.710847900390625,1.2843799591064453,0.32274046540260315,-0.16372978687286377
1742766320674231600,17.7252314453125,0.031014442443847656,-0.29456400871276855,-0.21416649222373962
1742766320688615000,17.739614990234376,-0.6591024398803711,0.297699511051178,-0.9071933031082153
1742766320702998500,17.75399853515625,1.1483850479125977,-0.32110995054244995,0.6681938767433167
1742766320717382000,17.7683818359375,0.2136058807373047,0.25415244698524475,-0.7100696563720703
1742766320731765500,17.782765625,0.15910911560058594,-0.16743220388889313,-0.16069236397743225
1742766320746149000,17.797149169921877,0.09810829162597656,-0.29045552015304565,-0.36439207196235657
1742766320760532500,17.811532470703124,-0.5068569183349609,1.2595438957214355,-0.19403308629989624
1742766320774916000,17.825916015625,-0.2477579116821289,0.0052384138107299805,0.44658738374710083
