time,seconds_elapsed,z,y,x
1742766303007671800,0.058671875,10.521241188049316,0.8225327730178833,-1.0007981061935425
1742766303010069000,0.061069091796875,11.404192924499512,0.32602208852767944,-0.529412031173706
1742766303012466200,0.063466064453125,12.147762298583984,0.6819544434547424,-0.7579265832901001
1742766303014863600,0.065863525390625,11.893525123596191,-0.0975075215101242,-0.2709871530532837
1742766303017260800,0.0682607421875,10.773683547973633,-0.9912267923355103,1.1838489770889282
1742766303019658000,0.070657958984375,9.380462646484375,-1.1120643615722656,1.4769697189331055
1742766303022055200,0.07305517578125,8.510671615600586,-0.48394837975502014,0.36311084032058716
1742766303024452600,0.07545263671875,8.206185340881348,0.4666004180908203,-0.5162515044212341
1742766303026849800,0.077849853515625,6.973283290863037,0.1459621787071228,-0.7680960893630981
1742766303029247000,0.0802470703125,6.410371780395508,-0.45284169912338257,-0.9218349456787109
1742766303031644200,0.08264404296875,7.860422611236572,0.12861421704292297,-1.074377417564392
1742766303034041600,0.08504150390625,11.010573387145996,0.025722842663526535,-0.2919243574142456
1742766303036425500,0.087425537109375,13.920246124267578,-0.8745766878128052,0.8303094506263733
1742766303038836000,0.0898359375,13.727025032043457,-0.32123643159866333,0.8949156403541565
1742766303041233400,0.0922333984375,10.567901611328125,0.519242525100708,-0.18364913761615753
1742766303043617300,0.0946171875,6.776473522186279,0.18125630915164948,-0.672383189201355
1742766303046027800,0.09702783203125,5.272584915161133,0.16749759018421173,-0.1256231814622879
1742766303048425000,0.099425048828125,6.061617851257324,0.3200400173664093,0.5641079545021057
1742766303050808800,0.101808837890625,8.976076126098633,-0.1543370634317398,0.04007977992296219
1742766303053219600,0.104219482421875,11.670992851257324,0.014356935396790504,-1.3268201351165771
1742766303055616800,0.10661669921875,12.162118911743164,0.672383189201355,-0.6436693072319031
1742766303058014000,0.109013916015625,11.36770248413086,0.23389841616153717,0.7226324677467346
1742766303060411400,0.111411376953125,10.349555969238281,0.39182472229003906,0.15912270545959473
1742766303062808600,0.11380859375,10.088738441467285,1.3782658576965332,-0.9541380405426025
1742766303065205800,0.116205810546875,9.44626522064209,0.5204389095306396,-0.97148597240448
1742766303067603200,0.118603271484375,9.998409271240234,-0.32662028074264526,-0.39601215720176697
1742766303070000400,0.12100048828125,10.016355514526367,-0.19980068504810333,-0.08135596662759781
1742766303072397600,0.1233974609375,9.407979965209961,0.16929219663143158,-0.13998012244701385
1742766303074794800,0.125794677734375,9.147761344909668,-0.13160525262355804,-0.3314059376716614
1742766303077192200,0.128192138671875,9.842277526855469,-0.4899304509162903,-0.3158525824546814
1742766303079589400,0.13058935546875,11.115857124328613,-0.019142581149935722,-0.5306084156036377
1742766303081986600,0.132986572265625,10.989636421203613,0.13938191533088684,-1.1581261157989502
1742766303084384000,0.135384033203125,9.817152976989746,0.0023928226437419653,-1.079761266708374
1742766303086781200,0.13778125,9.568299293518066,0.4372883439064026,-0.16749759018421173
1742766303089178400,0.140178466796875,10.066604614257812,-0.3607180118560791,0.9176474809646606
1742766303091575600,0.142575439453125,10.514062881469727,-1.4009976387023926,0.8823533654212952
1742766303093973000,0.144972900390625,9.365508079528809,-0.32183465361595154,0.18125630915164948
1742766303096370200,0.1473701171875,7.964509963989258,0.666999340057373,-0.1052841991186142
1742766303098767400,0.149767333984375,7.5667033195495605,0.3002992272377014,0.06939185410737991
1742766303101164800,0.152164794921875,9.040083885192871,0.46420758962631226,-0.023330021649599075
1742766303103562000,0.15456201171875,10.076175689697266,0.41156548261642456,-0.5688936114311218
1742766303105959200,0.156959228515625,10.208379745483398,-0.2949153780937195,-0.5060819983482361
1742766303108356400,0.1593564453125,10.248459815979004,0.029312077909708023,0.20458634197711945
1742766303110753800,0.16175390625,10.093523979187012,0.6191428303718567,0.8512466549873352
1742766303113151000,0.16415087890625,9.913464546203613,0.45104706287384033,0.6699903607368469
1742766303115548200,0.166548095703125,8.888737678527832,-0.11066804826259613,-0.3451646566390991
1742766303117945300,0.1689453125,7.864609718322754,-0.24406790733337402,-0.6245267391204834
1742766303120342800,0.1713427734375,8.124231338500977,0.0891326442360878,-0.20877377688884735
1742766303122740000,0.173739990234375,9.226125717163086,0.1339980661869049,-0.10169496387243271
1742766303125137200,0.17613720703125,10.222736358642578,0.1417747437953949,-0.45104706287384033
1742766303127534600,0.17853466796875,10.3890380859375,0.24586252868175507,-1.0701899528503418
1742766303129931800,0.180931884765625,10.641480445861816,-0.061016976833343506,-0.763310432434082
1742766303132329000,0.183328857421875,11.162517547607422,-0.30209386348724365,0.11066804826259613
1742766303134726100,0.18572607421875,11.125429153442383,0.007178467698395252,-0.03529413416981697
1742766303137123600,0.18812353515625,9.717252731323242,-0.07178468257188797,-0.6376872062683105
1742766303139520800,0.190520751953125,8.230711936950684,-0.41216370463371277,-0.4211367964744568
1742766303141918000,0.19291796875,8.767900466918945,-0.43609192967414856,-0.13220344483852386
1742766303144315100,0.195315185546875,10.137791633605957,-0.7591229677200317,-0.1657029688358307
1742766303146712600,0.197712646484375,11.153544425964355,-0.7615157961845398,-0.25363919138908386
1742766303149109800,0.20010986328125,10.96869945526123,-0.1178465187549591,-0.13579268753528595
1742766303151507000,0.2025068359375,10.401001930236816,-0.2991028428077698,0.7076773047447205
1742766303153904400,0.204904296875,10.456634521484375,-0.5653043389320374,0.8015955686569214
1742766303156301600,0.207301513671875,11.067402839660645,0.064606212079525,-0.2919243574142456
1742766303158698800,0.20969873046875,11.387442588806152,0.13639089465141296,-0.6687939167022705
1742766303161096000,0.212095947265625,10.834700584411621,-0.137587308883667,-0.23988047242164612
1742766303163493400,0.214493408203125,9.504889488220215,0.45104706287384033,-0.20518454909324646
1742766303165877200,0.216877197265625,8.316853523254395,0.41096729040145874,-0.4743770956993103
1742766303168287700,0.219287841796875,8.636893272399902,0.12023933976888657,-0.519242525100708
1742766303170685200,0.221685302734375,8.458627700805664,0.25064817070961,-0.36610186100006104
1742766303173069000,0.224069091796875,7.802994728088379,0.12382857501506805,-0.2267199456691742
1742766303175479600,0.2264794921875,9.047262191772461,0.6879364848136902,0.020338991656899452
1742766303177877000,0.228876953125,10.440483093261719,0.40737804770469666,0.09212367236614227
1742766303180274200,0.231274169921875,10.107282638549805,-0.5946164131164551,0.15912270545959473
1742766303182671400,0.23367138671875,8.58066177368164,0.02273181453347206,-0.16749759018421173
1742766303185068500,0.236068603515625,6.841678142547607,0.768694281578064,-1.0121639966964722
1742766303187452400,0.238452392578125,6.5766730308532715,0.47617170214653015,-1.1126625537872314
1742766303189863200,0.24086328125,7.973483085632324,-0.12382857501506805,-0.7052844762802124
1742766303192260400,0.24326025390625,9.738189697265625,-0.6041877269744873,-0.6209374666213989
1742766303194644200,0.245644287109375,11.193624496459961,-0.5312066078186035,-0.6005984544754028
1742766303197055000,0.248054931640625,11.836695671081543,-0.5545366406440735,-0.13519448041915894
1742766303199452200,0.2504521484375,12.244671821594238,-0.5874379873275757,0.5491527915000916
1742766303201836000,0.2528359375,11.739188194274902,-0.4420739710330963,-0.10588239878416061
1742766303204246800,0.255246826171875,10.183255195617676,0.22791635990142822,-0.6747759580612183
1742766303206644000,0.25764404296875,9.905089378356934,0.3158525824546814,0.18783657252788544
1742766303209041200,0.260041259765625,10.51944637298584,-0.22612173855304718,0.6029912829399109
1742766303211438300,0.262438232421875,10.355538368225098,0.2566302418708801,-0.4175475537776947
1742766303213835800,0.264835693359375,9.281160354614258,0.3008974492549896,-1.0630114078521729
1742766303216219600,0.2672197265625,8.499305725097656,-0.389431893825531,-0.5934200286865234
1742766303218630100,0.269630126953125,8.01236629486084,-0.5551348328590393,0.2877369225025177
1742766303221027300,0.27202734375,8.769096374511719,-0.06041877344250679,0.7507480978965759
1742766303223424800,0.2744248046875,10.500304222106934,0.6089733839035034,-0.11665010452270508
1742766303225822000,0.276822021484375,10.073782920837402,0.5988038778305054,-0.8823533654212952
1742766303228219100,0.27921923828125,8.192426681518555,0.3858426511287689,-0.5168496966362
1742766303230603000,0.28160302734375,7.63609504699707,0.47916272282600403,-0.41515472531318665
1742766303233013800,0.284013671875,10.225129127502441,0.7836494445800781,-0.519242525100708
1742766303235411000,0.286410888671875,12.530613899230957,0.7172485589981079,-0.3158525824546814
1742766303237794800,0.288794921875,12.65743350982666,0.5467599630355835,-0.2787638306617737
1742766303240205600,0.29120556640625,11.289935111999512,-0.1537388563156128,-0.865005373954773
1742766303242602800,0.293602783203125,10.030712127685547,-0.6981059908866882,-1.1270195245742798
1742766303244986600,0.295986572265625,8.62193775177002,-0.22193430364131927,-0.5018945336341858
1742766303247397000,0.298397216796875,6.8171515464782715,-0.35473597049713135,0.3152543902397156
1742766303249794600,0.300794677734375,7.547560691833496,-0.5557330846786499,0.31764721870422363
1742766303252178400,0.303178466796875,10.733604431152344,-0.08614161610603333,-0.33020952343940735
1742766303254589000,0.3055888671875,12.921242713928223,-0.6903293132781982,-0.22851456701755524
1742766303256986400,0.307986328125,11.866007804870605,-1.3956137895584106,0.8793623447418213
1742766303259383600,0.310383544921875,9.67657470703125,-0.18903298676013947,0.9433703422546387
1742766303261780700,0.31278076171875,8.717052459716797,1.1060823202133179,0.10887342691421509
1742766303264178000,0.315177978515625,8.6907320022583,0.4301098585128784,-0.6801598072052002
1742766303266575400,0.317575439453125,9.474381446838379,-0.23030917346477509,-0.7806583642959595
1742766303268972500,0.31997265625,9.900303840637207,-0.1381855010986328,-0.29012975096702576
1742766303271369700,0.32236962890625,10.272387504577637,-0.01136590726673603,-0.14775680005550385
1742766303273767000,0.324766845703125,10.363314628601074,0.037088751792907715,-0.09511470049619675
1742766303276164400,0.327164306640625,10.285548210144043,0.09272187948226929,-0.03768695518374443
1742766303278561500,0.3295615234375,9.931410789489746,0.47557350993156433,-0.4205385744571686
1742766303280958700,0.331958740234375,9.888937950134277,0.8075776696205139,-1.2424731254577637
1742766303283356200,0.334356201171875,10.499107360839844,0.6364908218383789,-0.9355936646461487
1742766303285753300,0.33675341796875,11.249855995178223,0.45942193269729614,-0.02871387079358101
1742766303288150500,0.339150634765625,10.747961044311523,-0.014356935396790504,0.5222335457801819
1742766303290547700,0.341547607421875,9.626923561096191,-0.4827519655227661,0.617946445941925
1742766303292945200,0.343945068359375,8.37846851348877,-0.7304090857505798,-0.13280165195465088
1742766303295329000,0.3463291015625,7.806583881378174,-1.0055837631225586,-0.5515456199645996
1742766303297739500,0.348739501953125,7.99382209777832,-0.6251249313354492,-0.15972091257572174
1742766303300137000,0.351136962890625,8.678768157958984,0.26500511169433594,0.02392822690308094
1742766303302534100,0.3535341796875,8.578866958618164,0.20338992774486542,-0.18544375896453857
1742766303304931300,0.355931396484375,8.112865447998047,-0.5760720372200012,-0.18843477964401245
1742766303307328800,0.358328857421875,9.976275444030762,-0.07238288223743439,0.07178468257188797
1742766303309712400,0.36071240234375,11.642278671264648,0.06340979784727097,0.19202402234077454
1742766303312123100,0.363123046875,10.72702407836914,-0.3116651475429535,0.1543370634317398
1742766303314520300,0.365520263671875,9.18006420135498,0.3966103494167328,0.4325026869773865
1742766303316917800,0.367917724609375,8.766105651855469,0.15672987699508667,0.06580262631177902
1742766303319315000,0.37031494140625,8.806185722351074,-0.4175475537776947,-0.9128618240356445
1742766303321712000,0.372712158203125,8.383254051208496,0.06699903309345245,-0.9194421172142029
1742766303324109300,0.375109375,8.10688304901123,0.388235479593277,-0.21176479756832123
1742766303326506800,0.3775068359375,9.095717430114746,0.6329016089439392,-0.27038896083831787
1742766303328904000,0.379904052734375,10.866405487060547,0.8805587291717529,-0.5156532526016235
1742766303331287800,0.382287841796875,12.467204093933105,0.4103690981864929,0.049651071429252625
1742766303333698600,0.384698486328125,12.76630687713623,0.24885354936122894,-0.23748764395713806
1742766303336095700,0.387095703125,10.415956497192383,0.7980063557624817,-1.072582721710205
1742766303338479600,0.389479736328125,8.661419868469238,0.46839502453804016,-0.8512466549873352
1742766303340890000,0.39189013671875,9.390632629394531,-0.8159525394439697,0.1453639715909958
1742766303343287600,0.39428759765625,10.537392616271973,-0.9684949517250061,-0.10588239878416061
1742766303345684700,0.396684814453125,9.858428955078125,0.13698910176753998,-1.3076776266098022
1742766303348082000,0.39908203125,8.172685623168945,0.8482556343078613,-0.7956135272979736
1742766303350479000,0.40147900390625,7.898109436035156,-0.17288143932819366,0.4660021960735321
1742766303352876500,0.40387646484375,9.439684867858887,-0.5150550603866577,0.09451649338006973
1742766303355273700,0.406273681640625,10.823334693908691,0.41575294733047485,-0.851844847202301
1742766303357671000,0.4086708984375,10.842477798461914,-0.39601215720176697,-0.8177471160888672
1742766303360068400,0.411068359375,10.49671459197998,-1.1467602252960205,0.38344982266426086
1742766303362465500,0.413465576171875,10.328619003295898,-0.2835494875907898,0.28893333673477173
1742766303364862700,0.41586279296875,10.1814603805542,0.3756731450557709,-0.7597211599349976
1742766303367260000,0.418260009765625,9.522835731506348,0.1339980661869049,-0.38763725757598877
1742766303369657300,0.4206572265625,8.147561073303223,-0.20458634197711945,0.7184450030326843
1742766303372054500,0.423054443359375,8.027321815490723,0.2356930375099182,0.7016952633857727
1742766303374451700,0.42545166015625,8.94975471496582,0.8231309652328491,-0.664606511592865
1742766303376849200,0.42784912109375,9.707083702087402,0.38225340843200684,-1.2203395366668701
1742766303379246300,0.430246337890625,9.528818130493164,-0.3475574851036072,0.014356935396790504
1742766303381630200,0.432630126953125,9.477372169494629,-0.007178467698395252,1.2203395366668701
1742766303384040700,0.435040771484375,10.734800338745117,0.6981059908866882,0.6071787476539612
1742766303386438100,0.437438232421875,11.268998146057129,-0.3930211067199707,-0.45164528489112854
1742766303388835300,0.43983544921875,9.435498237609863,-0.9822536706924438,-0.727418065071106
1742766303391232500,0.442232421875,7.2227349281311035,0.1381855010986328,-0.5491527915000916
1742766303393630000,0.4446298828125,6.845267295837402,0.9122636318206787,-0.33020952343940735
1742766303396027100,0.447027099609375,9.172286987304688,0.6616154313087463,-0.15613168478012085
1742766303398424300,0.44942431640625,11.540583610534668,0.16869398951530457,-0.10648060590028763
1742766303400821500,0.451821533203125,12.062817573547363,0.1704886108636856,-0.35533416271209717
1742766303403219000,0.454218994140625,10.925029754638672,0.32123643159866333,-0.6143572330474854
1742766303405616000,0.4566162109375,9.605388641357422,-0.31824541091918945,-0.004785645287483931
1742766303408013300,0.459013427734375,9.05862808227539,-1.0815558433532715,0.32542386651039124
1742766303410410800,0.46141064453125,9.79083251953125,-1.0301101207733154,-0.8422735929489136
1742766303412808000,0.463807861328125,10.706685066223145,-0.2871387302875519,-2.0309081077575684
1742766303415205000,0.466205078125,10.900503158569336,-0.02512463741004467,-0.735194742679596
1742766303417589000,0.468589111328125,11.307283401489258,-0.33439695835113525,1.1670992374420166
1742766303419999700,0.470999755859375,10.953743934631348,-0.4582255482673645,0.49591249227523804
1742766303422397000,0.47339697265625,9.887741088867188,0.1052841991186142,-0.6083751320838928
1742766303424780800,0.47578076171875,8.154141426086426,0.4301098585128784,0.049651071429252625
1742766303427191300,0.47819140625,7.6043901443481445,-0.44446679949760437,1.0133603811264038
1742766303429588700,0.480588623046875,9.993623733520508,-0.2847459018230438,0.760917603969574
1742766303431972600,0.48297265625,12.799806594848633,0.21655045449733734,-0.4043870270252228
1742766303434383000,0.485383056640625,12.77348518371582,-0.8398807644844055,-1.057627558708191
1742766303436780500,0.487780517578125,9.619147300720215,-1.0857433080673218,-0.4660021960735321
1742766303439164400,0.490164306640625,6.835696220397949,0.49651068449020386,0.17228323221206665
1742766303441575000,0.492574951171875,7.16650390625,1.2687941789627075,-0.5916253924369812
1742766303443972000,0.49497216796875,9.981659889221191,1.0666006803512573,-1.6552350521087646
1742766303446356000,0.49735595703125,12.217752456665039,0.8446664214134216,-0.8147560954093933
1742766303448766700,0.4997666015625,12.550952911376953,0.25782662630081177,0.30987054109573364
1742766303451164000,0.502163818359375,10.14616584777832,0.16031911969184875,0.4295116662979126
1742766303453547800,0.5045478515625,7.562515735626221,0.2189432680606842,0.2309073805809021
1742766303455958500,0.50695849609375,6.15972375869751,-0.7692924737930298,0.03888336941599846
1742766303458355700,0.509355712890625,6.15254545211792,-0.9391828775405884,-0.22372891008853912
1742766303460739600,0.511739501953125,6.873981475830078,0.03529413416981697,-0.6969096064567566
1742766303463150300,0.514150390625,7.8287177085876465,0.3690928816795349,-0.8213363885879517
1742766303465547500,0.516547607421875,8.910871505737305,0.03888336941599846,-0.8159525394439697
1742766303467931400,0.518931396484375,10.604392051696777,-0.1663011759519577,-0.7920243144035339
1742766303470342000,0.521341796875,12.148959159851074,0.20817556977272034,-0.08434699475765228
1742766303472739300,0.5237392578125,11.581859588623047,-0.08673982322216034,0.7393822073936462
1742766303475123200,0.526123291015625,10.338788032531738,-0.30209386348724365,1.2646067142486572
1742766303477533700,0.52853369140625,10.016953468322754,0.21296121180057526,0.9828519225120544
1742766303479931000,0.530930908203125,10.467402458190918,0.13040883839130402,-0.5282155871391296
1742766303482315000,0.53331494140625,8.70927619934082,-0.7770691514015198,-1.5092729330062866
1742766303484725500,0.5357255859375,6.519245147705078,-0.373878538608551,-1.2693923711776733
1742766303487122700,0.538122802734375,6.463612079620361,0.7304090857505798,-0.7926225066184998
1742766303489520000,0.54052001953125,9.10409164428711,0.7483552694320679,-0.5599204897880554
1742766303491917300,0.542917236328125,12.108879089355469,0.34695929288864136,-0.40677985548973083
1742766303494314500,0.545314453125,13.458431243896484,0.08374879509210587,0.08853443711996078
1742766303496698400,0.547698486328125,12.132806777954102,-0.06041877344250679,0.41874396800994873
1742766303499109000,0.550109130859375,9.748359680175781,0.5856433510780334,0.15194423496723175
1742766303501506300,0.55250634765625,8.587242126464844,0.3128615617752075,-0.19920247793197632
1742766303503903500,0.554903564453125,8.791230201721191,-0.7716853022575378,-0.5335994362831116
1742766303506300700,0.55730078125,8.917451858520508,-0.09391828626394272,-0.8500502705574036
1742766303508698000,0.559697998046875,8.093124389648438,0.6855437159538269,-0.7345965504646301
1742766303511095300,0.56209521484375,8.228917121887207,0.1866401731967926,-0.4085744619369507
1742766303513492500,0.564492431640625,10.225728034973145,-0.09092725813388824,-0.5000999569892883
1742766303515890000,0.566889892578125,12.533604621887207,0.05802594870328903,-0.6095715761184692
1742766303518273800,0.569273681640625,12.814163208007812,-0.1537388563156128,-0.3774677813053131
1742766303520684300,0.571684326171875,10.904092788696289,-0.31345975399017334,-0.05563312768936157
1742766303523081700,0.574081787109375,10.171290397644043,-0.3409772217273712,0.050847481936216354
1742766303525479000,0.57647900390625,10.962119102478027,-0.373878538608551,-0.20338992774486542
1742766303527876000,0.5788759765625,11.016555786132812,-0.5383850932121277,-0.4468596279621124
1742766303530273300,0.581273193359375,8.633902549743652,-0.41934216022491455,0.06819544732570648
1742766303532657200,0.5836572265625,6.546762943267822,0.2386840581893921,0.7244270443916321
1742766303535068000,0.58606787109375,7.522436141967773,0.389431893825531,0.24646073579788208
1742766303537465000,0.588465087890625,10.421340942382812,-0.05024927482008934,-0.5288137793540955
1742766303539849000,0.590848876953125,12.061022758483887,-0.062213387340307236,-0.31824541091918945
1742766303542259700,0.593259765625,10.915458679199219,-0.01136590726673603,0.3032902777194977
1742766303544657000,0.595656982421875,8.854042053222656,0.02273181453347206,0.4175475537776947
1742766303547040800,0.598040771484375,8.552546501159668,0.025722842663526535,0.20398813486099243
1742766303549451500,0.600451416015625,9.337990760803223,-0.44805604219436646,-0.3236292600631714
1742766303551848700,0.6028486328125,8.441280364990234,-0.372682124376297,-1.1306086778640747
1742766303554232600,0.605232666015625,7.029514789581299,1.0707881450653076,-1.2484551668167114
1742766303556643000,0.60764306640625,7.88076114654541,1.6666009426116943,-0.7334001660346985
1742766303559040500,0.61004052734375,10.61396312713623,0.3002992272377014,-0.018544375896453857
1742766303561424400,0.61242431640625,12.235100746154785,-0.5784648656845093,0.6215356588363647
1742766303563835000,0.6148349609375,11.773285865783691,-0.46779683232307434,0.37507495284080505
1742766303566232000,0.617232177734375,10.353743553161621,-0.38644084334373474,0.0023928226437419653
1742766303568629500,0.61962939453125,9.211769104003906,-0.24227328598499298,0.1010967567563057
1742766303571026700,0.622026611328125,8.956335067749023,-0.9702895879745483,-0.31106695532798767
1742766303573423900,0.624423828125,8.797212600708008,-1.3052847385406494,-1.160519003868103
1742766303575821300,0.6268212890625,8.775078773498535,-0.2309073805809021,-1.2400803565979004
1742766303578218500,0.629218505859375,9.90568733215332,0.2512463629245758,-0.25004997849464417
1742766303580615700,0.63161572265625,12.05204963684082,-0.1178465187549591,0.36191442608833313
1742766303582999600,0.63399951171875,12.993026733398438,-0.25244277715682983,-0.19800607860088348
1742766303585410300,0.636410400390625,11.670393943786621,0.1136590763926506,-0.2356930375099182
1742766303587807500,0.638807373046875,9.833304405212402,0.28953152894973755,0.4977070987224579
1742766303590204700,0.64120458984375,9.319445610046387,-0.0077766734175384045,0.882951557636261
1742766303592601900,0.643601806640625,10.37228775024414,0.06819544732570648,0.3284149169921875
1742766303594999300,0.645999267578125,10.302297592163086,-0.12442677468061447,-1.2005987167358398
1742766303597383200,0.648383056640625,8.11824893951416,-0.267397940158844,-2.0297117233276367
1742766303599793700,0.650793701171875,5.498706340789795,0.4504488706588745,-1.1389836072921753
1742766303602191000,0.653191162109375,5.232504844665527,1.1778669357299805,0.09391828626394272
1742766303604588300,0.65558837890625,8.5100736618042,0.7770691514015198,0.026919255033135414
1742766303606985500,0.6579853515625,12.388240814208984,0.1908276081085205,-0.8279166221618652
1742766303609382700,0.660382568359375,13.625329971313477,0.5551348328590393,-0.8380861282348633
1742766303611766800,0.662766845703125,11.466405868530273,0.3433700501918793,-0.05802594870328903
1742766303614177300,0.66517724609375,9.106484413146973,-0.2548356056213379,0.529412031173706
1742766303616574500,0.667574462890625,8.73499870300293,-0.029312077909708023,0.1178465187549591
1742766303618972000,0.669971923828125,8.781061172485352,-0.7226324677467346,-0.857228696346283
1742766303621369000,0.672369140625,9.628718376159668,-1.1054840087890625,-1.3184453248977661
1742766303623766300,0.674766357421875,10.436894416809082,0.259621262550354,-0.7465606927871704
1742766303626163700,0.677163818359375,10.619945526123047,0.5874379873275757,-0.259621262550354
1742766303628561000,0.679560791015625,10.719246864318848,-0.5102694034576416,-1.0223335027694702
1742766303630958000,0.6819580078125,11.235498428344727,-0.45164528489112854,-1.2089736461639404
1742766303633342000,0.684342041015625,12.016755104064941,-0.35892340540885925,0.07956135272979736
1742766303635752700,0.686752685546875,12.364911079406738,-0.6317051649093628,1.0869396924972534
1742766303638150000,0.68914990234375,11.729616165161133,0.01734796352684498,1.1156535148620605
1742766303640547000,0.691547119140625,10.3681001663208,0.04905286431312561,0.4043870270252228
1742766303642944300,0.6939443359375,8.867202758789062,-0.7268198728561401,-0.7387840151786804
1742766303645341700,0.696341796875,7.36032247543335,-0.12382857501506805,-0.9984052777290344
1742766303647725600,0.6987255859375,6.399005889892578,0.997208833694458,-0.12382857501506805
1742766303650136000,0.701135986328125,7.954938888549805,1.1126625537872314,0.09212367236614227
1742766303652533500,0.703533447265625,10.977073669433594,0.802193820476532,-0.745364248752594
1742766303654917400,0.70591748046875,12.509078979492188,0.9200403094291687,-1.0145567655563354
1742766303657327900,0.708327880859375,11.21216869354248,0.39481574296951294,-0.45224347710609436
1742766303659725000,0.71072509765625,8.892327308654785,-0.3643072545528412,0.07238288223743439
1742766303662109000,0.71310888671875,8.508877754211426,0.04905286431312561,0.1663011759519577
1742766303664519700,0.715519775390625,10.235299110412598,0.7304090857505798,-0.2913261651992798
1742766303666916900,0.717916748046875,11.184651374816895,-0.1788634955883026,-0.7172485589981079
1742766303669314000,0.72031396484375,9.929018020629883,-0.5778666734695435,-0.7405785918235779
1742766303671711500,0.72271142578125,8.338987350463867,0.584446907043457,-0.8213363885879517
1742766303674108700,0.725108642578125,7.396812915802002,0.4492524564266205,-0.672383189201355
1742766303676505900,0.727505859375,8.263014793395996,-0.3044866919517517,0.059820566326379776
1742766303678903300,0.7299033203125,9.744172096252441,-0.29012975096702576,0.31405797600746155
1742766303681300500,0.732300537109375,10.054640769958496,-0.6323033571243286,0.020937198773026466
1742766303683697700,0.73469775390625,10.045069694519043,-0.6496513485908508,-0.3595215976238251
1742766303686094800,0.7370947265625,10.307682037353516,-0.5665007829666138,-0.3314059376716614
1742766303688492300,0.7394921875,10.119845390319824,-1.3058829307556152,-0.05383851006627083
1742766303690889500,0.741889404296875,9.435498237609863,-0.5802595019340515,-0.3535395562648773
1742766303693286700,0.74428662109375,8.589634895324707,0.9361918568611145,-0.36729827523231506
1742766303695683800,0.746683837890625,8.817551612854004,0.698704183101654,0.14476576447486877
1742766303698081300,0.749081298828125,10.079765319824219,0.11844471842050552,0.09152546525001526
1742766303700478500,0.751478515625,11.073385238647461,0.7860422134399414,-0.08793623000383377
1742766303702875600,0.753875732421875,11.118250846862793,0.6287141442298889,0.1585244983434677
1742766303705273000,0.756273193359375,11.109277725219727,-0.1950150430202484,0.4253242313861847
1742766303707670300,0.758670166015625,11.255239486694336,-0.0029910283628851175,0.3068794906139374
1742766303710067500,0.7610673828125,11.597413063049316,0.19920247793197632,-0.40677985548973083
1742766303712451300,0.763451416015625,11.003993034362793,-0.3242274820804596,-1.5792629718780518
1742766303714862000,0.765862060546875,9.05563735961914,-0.10229317098855972,-1.750349760055542
1742766303717259300,0.76825927734375,8.00937557220459,0.8889335989952087,-0.7525427341461182
1742766303719656400,0.770656494140625,9.979865074157715,0.9014959335327148,0.11964113265275955
1742766303722053600,0.7730537109375,12.05504035949707,0.04426721855998039,0.14356936514377594
1742766303724451000,0.775451171875,11.824132919311523,-0.2763710021972656,0.1423729509115219
1742766303726848300,0.77784814453125,9.870991706848145,-0.06041877344250679,0.25304099917411804
1742766303729245400,0.780245361328125,8.175078392028809,-0.5754738450050354,-0.24107688665390015
1742766303731643000,0.782642822265625,7.394420146942139,-0.9852447509765625,-0.6939185857772827
1742766303734026800,0.78502685546875,7.17786979675293,-0.5647061467170715,-0.7148557901382446
1742766303736437200,0.787437255859375,7.165307521820068,-0.32123643159866333,-0.9278169870376587
1742766303738834700,0.789834716796875,8.047062873840332,0.13160525262355804,-1.2418749332427979
1742766303741231900,0.79223193359375,9.991230964660645,0.6897311210632324,-1.2478569746017456
1742766303743629000,0.794629150390625,12.15673542022705,-0.08374879509210587,-0.5377869009971619
1742766303746026200,0.797026123046875,13.207782745361328,-0.17527425289154053,0.09690931439399719
1742766303748410000,0.79941015625,11.740384101867676,0.7094719409942627,0.5521438121795654
1742766303750820900,0.80182080078125,10.106086730957031,0.355932354927063,1.1162517070770264
1742766303753218000,0.804218017578125,10.205389022827148,-0.3768695592880249,0.7172485589981079
1742766303755615500,0.806615478515625,10.217352867126465,-0.6598208546638489,-0.8793623447418213
1742766303758012700,0.8090126953125,8.685347557067871,-0.8189435601234436,-1.8149559497833252
1742766303760409900,0.811409912109375,6.663413047790527,0.015553346835076809,-0.9918249845504761
1742766303762793700,0.813793701171875,6.303293228149414,0.9912267923355103,0.8620143532752991
1742766303765204500,0.81620458984375,9.089137077331543,0.8817551732063293,1.231107234954834
1742766303767601700,0.8186015625,12.094522476196289,0.3439682424068451,-0.7501499056816101
1742766303769985500,0.820985595703125,11.772089004516602,0.3320041298866272,-1.9728822708129883
1742766303772396000,0.82339599609375,9.18425178527832,0.41934216022491455,-0.24287149310112
1742766303774793500,0.82579345703125,8.74038314819336,0.36311084032058716,1.466800332069397
1742766303777190700,0.828190673828125,10.594820022583008,-0.07417750358581543,0.8656035661697388
1742766303779587800,0.830587890625,11.666206359863281,-0.8273184299468994,-1.2646067142486572
1742766303781985300,0.8329853515625,9.6795654296875,-0.9912267923355103,-2.294118642807007
1742766303784369200,0.835369140625,6.934998035430908,0.15732808411121368,-1.2245270013809204
1742766303786779600,0.837779541015625,6.961917400360107,1.1736794710159302,-0.06759724020957947
1742766303789176800,0.8401767578125,9.573084831237793,0.8051848411560059,-0.5318048596382141
1742766303791561000,0.84256103515625,12.029317855834961,-0.2356930375099182,-0.8626125454902649
1742766303793971500,0.844971435546875,12.809377670288086,-0.5635097622871399,-0.22791635990142822
1742766303796368600,0.84736865234375,12.009576797485352,-0.16091732680797577,0.26141586899757385
1742766303798765800,0.849765869140625,11.163115501403809,-0.32542386651039124,0.07238288223743439
1742766303801163300,0.852163330078125,10.503294944763184,-0.5108676552772522,-0.364905446767807
1742766303803560400,0.854560546875,8.86660385131836,-0.6825526356697083,-0.12861421704292297
1742766303805944300,0.8569443359375,7.135995388031006,-0.6119644045829773,0.04187439754605293
1742766303808355000,0.85935498046875,6.7208404541015625,0.48813581466674805,-0.3415754437446594
1742766303810752300,0.861752197265625,8.153543472290039,1.2849457263946533,-0.7028916478157043
1742766303813149400,0.8641494140625,10.075577735900879,0.4534398913383484,-0.4875376224517822
1742766303815546600,0.866546630859375,11.414361953735352,0.28235307335853577,-0.35832518339157104
1742766303817944000,0.868944091796875,10.852048873901367,0.46360939741134644,0.1818545162677765
1742766303820341200,0.87134130859375,10.85145092010498,0.16091732680797577,0.851844847202301
1742766303822738400,0.873738525390625,11.758928298950195,-0.06999006122350693,0.5916253924369812
1742766303825135600,0.876135498046875,11.086545944213867,-0.3684946894645691,-1.0133603811264038
1742766303827519700,0.878519775390625,8.250452041625977,-0.1459621787071228,-2.276770830154419
1742766303829930200,0.88093017578125,6.029314994812012,0.9200403094291687,-1.7330018281936646
1742766303832327400,0.883327392578125,6.533602237701416,0.9565308690071106,0.6376872062683105
1742766303834711300,0.885711181640625,9.424132347106934,0.07357929646968842,2.0452651977539062
1742766303837122000,0.8881220703125,11.652447700500488,-0.39601215720176697,0.047258246690034866
1742766303839519200,0.890519287109375,11.895319938659668,-0.33499518036842346,-2.286342144012451
1742766303841916400,0.89291650390625,10.50508975982666,-0.31046873331069946,-1.5493526458740234
1742766303844313900,0.89531396484375,8.862417221069336,-0.6951149702072144,0.5617151260375977
1742766303846711000,0.8977109375,8.444271087646484,-0.9720842242240906,0.8943174481391907
1742766303849108200,0.900108154296875,10.121041297912598,-0.6131607890129089,-0.8410771489143372
1742766303851505700,0.902505615234375,11.48255729675293,-0.3080759048461914,-1.8233308792114258
1742766303853902800,0.90490283203125,10.168299674987793,-0.5288137793540955,-0.37866419553756714
1742766303856286700,0.90728662109375,8.35872745513916,0.1824527233839035,0.753140926361084
1742766303858697200,0.909697265625,7.964509963989258,1.0893324613571167,-0.04127619042992592
1742766303861094700,0.9120947265625,9.707083702087402,0.8159525394439697,-0.42293140292167664
1742766303863478500,0.914478515625,12.134003639221191,-0.15972091257572174,0.36610186100006104
1742766303865889000,0.916888916015625,12.673584938049316,-0.41515472531318665,0.30628129839897156
1742766303868286500,0.919286376953125,10.882556915283203,0.27397820353507996,-0.8668000102043152
1742766303870683600,0.92168359375,9.387641906738281,0.607776939868927,-1.337587833404541
1742766303873080800,0.924080810546875,8.294719696044922,-0.5826523303985596,-0.39840495586395264
1742766303875478000,0.92647802734375,7.501499176025391,-0.666999340057373,0.4737788736820221
1742766303877862000,0.92886181640625,7.392625331878662,1.2346965074539185,0.06999006122350693
1742766303880272600,0.931272705078125,8.560921669006348,1.2801600694656372,-0.7800601720809937
1742766303882669800,0.933669921875,10.175477981567383,0.04007977992296219,-1.1234302520751953
1742766303885053700,0.9360537109375,10.884950637817383,0.5240281820297241,-0.4366901218891144
1742766303887464400,0.93846435546875,9.744172096252441,0.5551348328590393,0.32303106784820557
1742766303889861600,0.940861572265625,7.806583881378174,-0.5395814776420593,0.4265206456184387
1742766303892245500,0.94324560546875,7.564908981323242,-0.3517449200153351,0.42771705985069275
1742766303894656300,0.94565625,9.614959716796875,-0.30987054109573364,0.19980068504810333
1742766303897053400,0.948053466796875,11.093125343322754,-0.9768698215484619,-1.0067801475524902
1742766303899437300,0.950437255859375,9.544371604919434,-0.47617170214653015,-1.9052850008010864
1742766303901847800,0.952847900390625,6.837490558624268,0.30628129839897156,-0.8051848411560059
1742766303904245200,0.955245361328125,6.896114826202393,-0.13459627330303192,1.1162517070770264
1742766303906642400,0.957642333984375,10.024730682373047,-0.8973084688186646,0.6915257573127747
1742766303909039600,0.96003955078125,13.141382217407227,-0.26620152592658997,-0.9032905697822571
1742766303911436800,0.962436767578125,14.070993423461914,0.5491527915000916,-0.5198407173156738
1742766303913821000,0.964821044921875,12.534801483154297,0.003589233849197626,0.8614161610603333
1742766303916231400,0.9672314453125,11.032109260559082,-0.550349235534668,1.0241280794143677
1742766303918628600,0.969628662109375,10.4823579788208,-0.3696911036968231,-0.24526432156562805
1742766303921026000,0.972026123046875,9.884750366210938,-0.4995017349720001,-1.1874382495880127
1742766303923423200,0.97442333984375,8.072187423706055,-0.38703906536102295,-1.0205388069152832
1742766303925820400,0.9768203125,6.798607349395752,1.1515458822250366,-0.8147560954093933
1742766303928204300,0.979204345703125,8.33719253540039,1.9938194751739502,-0.5276173949241638
1742766303930615000,0.981614990234375,11.550154685974121,0.5736792087554932,-0.3332005441188812
1742766303933012200,0.98401220703125,11.903096199035645,-0.519242525100708,-0.41575294733047485
1742766303935409400,0.986409423828125,9.647860527038574,0.16271193325519562,-0.19740787148475647
1742766303937806600,0.988806640625,8.803194046020508,0.6891329288482666,0.18305093050003052
1742766303940204000,0.9912041015625,10.693524360656738,0.08255238085985184,-0.005383851006627083
1742766303942588000,0.993587890625,11.700304985046387,-0.8548358678817749,-0.4169493317604065
1742766303944998400,0.995998291015625,9.777671813964844,-0.7172485589981079,-0.7310073375701904
1742766303947395800,0.998395751953125,6.988836765289307,0.064606212079525,-0.5641079545021057
1742766303949779700,1.00077978515625,7.036095142364502,0.137587308883667,0.09870393574237823
1742766303952190200,1.003190185546875,9.361320495605469,0.049651071429252625,-0.02153540402650833
1742766303954587400,1.00558740234375,10.570892333984375,0.2560320198535919,-0.7902296781539917
1742766303956984800,1.00798486328125,10.091131210327148,-0.054436713457107544,-0.50907301902771
1742766303959382000,1.010382080078125,10.198808670043945,-0.6293123364448547,0.6592226624488831
1742766303961779200,1.012779296875,11.25344467163086,-0.6394818425178528,1.1892328262329102
1742766303964163000,1.0151630859375,11.819347381591797,-0.7124629616737366,-0.07836493849754333
1742766303966573800,1.01757373046875,10.065408706665039,-0.7639086246490479,-1.2987045049667358
1742766303968971000,1.019970947265625,7.084549427032471,-0.36610186100006104,-0.623330295085907
1742766303971355000,1.02235498046875,5.900700569152832,0.12203395366668701,0.7722834944725037
1742766303973765600,1.024765625,8.990432739257812,0.6819544434547424,1.1300104856491089
1742766303976162800,1.027162841796875,12.66461181640625,0.3188436031341553,-0.2512463629245758
1742766303978546700,1.029546630859375,12.820743560791016,0.037088751792907715,-1.4673985242843628
1742766303980957400,1.03195751953125,9.992427825927734,0.5832505226135254,-0.8249256014823914
1742766303983354600,1.034354736328125,8.350353240966797,0.8913264274597168,0.48454657196998596
1742766303985751800,1.036751708984375,9.370891571044922,0.46899324655532837,0.6143572330474854
1742766303988149000,1.03914892578125,11.21934700012207,-0.2512463629245758,-0.46061834692955017
1742766303990546400,1.04154638671875,11.784052848815918,-0.6634100675582886,-1.5445669889450073
1742766303992943600,1.043943603515625,10.61276626586914,0.33439695835113525,-1.1611171960830688
1742766303995340800,1.0463408203125,8.962915420532227,0.9690931439399719,0.6131607890129089
1742766303997738200,1.04873828125,8.746963500976562,0.24885354936122894,1.5517455339431763
1742766304000135400,1.051135498046875,10.404590606689453,-0.649053156375885,0.3200400173664093
1742766304002532600,1.05353271484375,12.006586074829102,-0.3732803463935852,-1.0199406147003174
1742766304004929800,1.0559296875,11.379068374633789,-0.4097708761692047,-0.6903293132781982
1742766304007327200,1.0583271484375,9.138788223266602,-0.584446907043457,-0.20997019112110138
1742766304009724400,1.060724365234375,7.524828910827637,0.14057832956314087,-0.3355933725833893
1742766304012121600,1.06312158203125,7.927421569824219,-0.2871387302875519,-0.3577269911766052
1742766304014505500,1.06550537109375,9.707681655883789,-1.6995022296905518,-0.1501496136188507
1742766304016916200,1.067916259765625,10.729416847229004,-0.9326026439666748,-0.1818545162677765
1742766304019313400,1.0703134765625,10.123434066772461,0.9026923179626465,0.1333998590707779
1742766304021697300,1.072697265625,9.790233612060547,1.1425727605819702,0.8452646136283875
1742766304024108000,1.07510791015625,10.146764755249023,0.1543370634317398,0.7202396392822266
1742766304026505200,1.077505126953125,10.314860343933105,-0.37148571014404297,-0.14476576447486877
1742766304028902400,1.07990234375,10.710273742675781,-0.13639089465141296,-0.7968099117279053
1742766304031299600,1.082299560546875,10.551749229431152,0.23389841616153717,-1.1186445951461792
1742766304033697000,1.084697021484375,9.89551830291748,0.2638086974620819,-0.9074779748916626
1742766304036094200,1.08709423828125,9.483354568481445,0.25244277715682983,-0.4205385744571686
1742766304038491400,1.089491455078125,10.061819076538086,0.3684946894645691,-0.5838487148284912
1742766304040888600,1.091888671875,10.341180801391602,0.25304099917411804,-0.6705885529518127
1742766304043286000,1.0942861328125,9.722636222839355,0.3607180118560791,0.3122633695602417
1742766304045683200,1.09668310546875,8.582456588745117,0.3086741268634796,0.6197410821914673
1742766304048080400,1.099080322265625,8.117053031921387,0.3433700501918793,0.25423741340637207
1742766304050477800,1.101477783203125,9.322437286376953,0.4989035129547119,0.20458634197711945
1742766304052875000,1.103875,11.054841041564941,-0.48813581466674805,0.04785645380616188
1742766304055272200,1.106272216796875,11.133803367614746,-1.140179991722107,-0.641276478767395
1742766304057669400,1.10866943359375,9.862018585205078,0.23629122972488403,-1.155135154724121
1742766304060066800,1.11106689453125,8.291728973388672,0.4875376224517822,-0.7028916478157043
1742766304062464000,1.113464111328125,8.644071578979492,-0.07058826833963394,-0.2967100143432617
1742766304064861200,1.115861083984375,10.364511489868164,0.31345975399017334,-0.29371899366378784
1742766304067258400,1.11825830078125,10.788639068603516,0.13698910176753998,-0.2147558331489563
1742766304069655800,1.12065576171875,10.103095054626465,-0.6358926296234131,0.8015955686569214
1742766304072039700,1.123039794921875,10.164112091064453,-0.48095735907554626,1.454237937927246
1742766304074450200,1.1254501953125,10.708479881286621,-0.3284149169921875,0.6448656916618347
1742766304076847600,1.12784765625,11.13021469116211,-0.4049852192401886,-0.27038896083831787
1742766304079244800,1.130244873046875,10.124032974243164,-0.4265206456184387,-0.020937198773026466
1742766304081642000,1.13264208984375,9.293723106384277,0.10588239878416061,-0.001794616924598813
1742766304084039200,1.1350390625,8.470592498779297,0.8506484627723694,-0.5635097622871399
1742766304086436600,1.1374365234375,8.6033935546875,0.9565308690071106,-0.5676971673965454
1742766304088833800,1.139833740234375,9.613762855529785,0.6364908218383789,0.09511470049619675
1742766304091231000,1.14223095703125,10.505687713623047,0.5856433510780334,0.8356932997703552
1742766304093628200,1.144628173828125,10.570892333984375,0.3200400173664093,0.7722834944725037
1742766304096025600,1.147025634765625,9.468399047851562,-0.5419743061065674,-0.28175488114356995
1742766304098422800,1.1494228515625,8.438887596130371,-0.9517452120780945,-0.4336991012096405
1742766304100820200,1.1518203125,8.565707206726074,-0.355932354927063,-0.38344982266426086
1742766304103217400,1.154217529296875,9.54496955871582,0.7172485589981079,-1.0564311742782593
1742766304105614600,1.156614501953125,10.552348136901855,1.0354939699172974,-0.8051848411560059
1742766304108011800,1.15901171875,10.856834411621094,0.46839502453804016,0.14356936514377594
1742766304110409200,1.1614091796875,10.197611808776855,-0.13579268753528595,-0.04366901144385338
1742766304112806400,1.163806396484375,9.459425926208496,0.21954147517681122,-0.6352944374084473
1742766304115203600,1.16620361328125,9.994221687316895,-0.01136590726673603,-0.7328019142150879
1742766304117600800,1.168600830078125,10.926226615905762,-0.9732806086540222,-0.24466611444950104
1742766304119998200,1.170998291015625,11.13440227508545,-1.1581261157989502,0.11545369029045105
1742766304122395400,1.1733955078125,10.695917129516602,-0.5665007829666138,-0.3415754437446594
1742766304124792600,1.17579248046875,10.387243270874023,-0.42412781715393066,-0.9122636318206787
1742766304127190000,1.17818994140625,10.572687149047852,-0.6699903607368469,0.11964113265275955
1742766304129573600,1.18057373046875,10.98305606842041,-0.04127619042992592,1.7312071323394775
1742766304131984400,1.182984375,10.774282455444336,0.5910272002220154,1.2490534782409668
1742766304134381600,1.185381591796875,9.562317848205566,0.09990034252405167,-0.13100704550743103
1742766304136779000,1.187779052734375,9.873982429504395,0.10767702013254166,-0.050847481936216354
1742766304139176200,1.19017626953125,11.417353630065918,0.04546362906694412,0.5162515044212341
1742766304141573400,1.192573486328125,11.32822036743164,-0.12681959569454193,-0.3936193287372589
1742766304143957200,1.194957275390625,8.928817749023438,0.9535398483276367,-1.2490534782409668
1742766304146368000,1.197367919921875,7.299305438995361,1.4075778722763062,-0.542572557926178
1742766304148765200,1.19976513671875,7.970492362976074,0.16450655460357666,0.649053156375885
1742766304151162400,1.202162353515625,9.220742225646973,-0.20578274130821228,0.4486542344093323
1742766304153559800,1.204559814453125,8.851051330566406,0.6418746709823608,-0.8123632669448853
1742766304155957000,1.20695703125,8.286943435668945,0.4701896607875824,-1.0360921621322632
1742766304158354200,1.209354248046875,8.773882865905762,0.3361915946006775,0.22372891008853912
1742766304160751400,1.21175146484375,10.002596855163574,0.18843477964401245,1.196411371231079
1742766304163148800,1.214148681640625,10.121041297912598,-0.5419743061065674,0.21655045449733734
1742766304165532700,1.21653271484375,9.553942680358887,-0.8590233325958252,-1.3310075998306274
1742766304167943200,1.218943115234375,8.975478172302246,0.2350948303937912,-0.9960124492645264
1742766304170340400,1.22134033203125,8.663812637329102,0.33439695835113525,0.3577269911766052
1742766304172737800,1.22373779296875,8.050053596496582,-0.11006984114646912,-0.3762713670730591
1742766304175135000,1.226135009765625,7.41416072845459,0.15972091257572174,-1.568495273590088
1742766304177532200,1.2285322265625,9.016156196594238,0.020937198773026466,-0.7543373107910156
1742766304179916000,1.230916015625,12.361321449279785,-1.1611171960830688,0.5796613097190857
1742766304182326800,1.233326904296875,14.146367073059082,-1.3507484197616577,0.6269195079803467
1742766304184724000,1.235723876953125,12.218350410461426,-0.7974081635475159,0.6867401003837585
1742766304187121200,1.23812109375,10.139585494995117,-0.4827519655227661,0.8452646136283875
1742766304189518600,1.2405185546875,10.111470222473145,-0.1333998590707779,0.251844584941864
1742766304191915800,1.242915771484375,11.571091651916504,0.8350951075553894,-0.3320041298866272
1742766304194313000,1.24531298828125,11.554342269897461,1.00259268283844,-0.6215356588363647
1742766304196710100,1.247710205078125,10.358529090881348,0.4013960063457489,-0.8841479420661926
1742766304199107600,1.250107666015625,9.232706069946289,1.1910275220870972,-0.6011967062950134
1742766304201504800,1.2525048828125,10.39621639251709,1.3334003686904907,0.08733802288770676
1742766304203902000,1.25490185546875,11.961122512817383,-0.9314061999320984,0.28654050827026367
1742766304206299400,1.25729931640625,11.887542724609375,-1.6103696823120117,0.07836493849754333
1742766304208696600,1.259696533203125,9.684351921081543,0.7328019142150879,-0.052043892443180084
1742766304211093800,1.26209375,7.853842258453369,1.1174482107162476,-0.15553347766399384
1742766304213491000,1.264490966796875,8.363512992858887,0.15134602785110474,0.31465616822242737
1742766304215888400,1.266888427734375,9.710074424743652,0.6305087804794312,0.4899304509162903
1742766304218285600,1.26928564453125,9.41635513305664,0.6610172390937805,-0.4660021960735321
1742766304220682800,1.271682861328125,7.99083137512207,0.015553346835076809,-0.9044869542121887
1742766304223080000,1.274079833984375,8.397012710571289,0.14416755735874176,-0.11904292553663254
1742766304225477400,1.276477294921875,10.37647533416748,-0.7106683254241943,0.2147558331489563
1742766304227874600,1.27887451171875,11.496315956115723,-1.4075778722763062,-0.4289134442806244
1742766304230271700,1.281271728515625,10.429716110229492,-0.3858426511287689,-0.8548358678817749
1742766304232669200,1.283669189453125,7.740182876586914,-0.2063809484243393,0.1423729509115219
1742766304235066400,1.28606640625,7.162914752960205,-0.8452646136283875,1.2831511497497559
1742766304237463600,1.288463623046875,8.755936622619629,-0.5700899958610535,0.9810572862625122
1742766304239861000,1.290861083984375,10.302297592163086,0.33499518036842346,0.029910283163189888
1742766304242258200,1.293258056640625,10.803594589233398,0.062213387340307236,-0.4384847581386566
1742766304244655400,1.2956552734375,10.828120231628418,0.010169495828449726,-0.38703906536102295
1742766304247052500,1.298052490234375,11.48255729675293,0.16390834748744965,-0.33020952343940735
1742766304249450000,1.300449951171875,12.128021240234375,-0.4827519655227661,-0.6119644045829773
1742766304251833900,1.302833740234375,12.061022758483887,-0.529412031173706,-0.9116654396057129
1742766304254244400,1.305244384765625,9.896116256713867,0.6687939167022705,-0.09571290761232376
1742766304256641800,1.307641845703125,8.341978073120117,1.225723385810852,1.048654556274414
1742766304259025400,1.310025390625,8.086544036865234,0.4749752879142761,0.45942193269729614
1742766304261436200,1.312436279296875,8.431110382080078,0.494716078042984,-0.9170492887496948
1742766304263833300,1.314833251953125,9.266803741455078,1.5230315923690796,-1.4087743759155273
1742766304266230800,1.317230712890625,10.000802040100098,0.6879364848136902,-0.8817551732063293
1742766304268628000,1.3196279296875,10.97886848449707,-0.5706881880760193,0.12861421704292297
1742766304271025200,1.322025146484375,11.684152603149414,-0.20398813486099243,0.5718846321105957
1742766304273409000,1.324408935546875,11.67577838897705,-0.7752745151519775,-0.2309073805809021
1742766304275819800,1.32681982421875,10.906485557556152,-0.9613165259361267,-0.8111668825149536
1742766304278217000,1.329217041015625,9.072985649108887,0.10408778488636017,-0.22073788940906525
1742766304280600800,1.331600830078125,7.246663570404053,0.1585244983434677,0.16450655460357666
1742766304283011600,1.334011474609375,6.4289164543151855,0.029312077909708023,-0.4145565330982208
1742766304285408800,1.33640869140625,7.106683254241943,0.1902294009923935,-0.7776673436164856
1742766304287806000,1.338805908203125,9.93260669708252,-0.44805604219436646,0.01734796352684498
1742766304290203100,1.341203125,13.585848808288574,-0.9780662655830383,0.7824530005455017
1742766304292600600,1.3436005859375,13.016357421875,-0.607776939868927,0.5718846321105957
1742766304294997800,1.345997802734375,9.239286422729492,0.275174617767334,0.20338992774486542
1742766304297395000,1.34839501953125,6.811768054962158,0.8817551732063293,0.040677983313798904
1742766304299792100,1.350792236328125,6.770491600036621,0.7525427341461182,0.1782652884721756
1742766304302189600,1.353189453125,8.174480438232422,0.33918261528015137,0.33020952343940735
1742766304304586800,1.355586669921875,8.031509399414062,0.2548356056213379,-0.2841476798057556
1742766304306984000,1.35798388671875,7.159325122833252,0.6436693072319031,-0.9798609018325806
1742766304309381400,1.36038134765625,7.814360618591309,1.1988041400909424,-0.45942193269729614
1742766304311778600,1.362778564453125,10.503294944763184,0.31764721870422363,0.13878370821475983
1742766304314175700,1.36517578125,12.457633018493652,-0.8231309652328491,-0.3284149169921875
1742766304316559600,1.3675595703125,12.192627906799316,0.09930214285850525,-1.0660024881362915
1742766304318970400,1.369970458984375,10.40040397644043,0.8961120843887329,-0.8195417523384094
1742766304321367600,1.372367431640625,8.679366111755371,0.2392822653055191,0.4139583110809326
1742766304323751400,1.37475146484375,7.10429048538208,0.09631111472845078,1.0217353105545044
1742766304326162000,1.377161865234375,7.39561653137207,0.19800607860088348,0.2548356056213379
1742766304328559400,1.379559326171875,10.490134239196777,0.20338992774486542,-0.8231309652328491
1742766304330943200,1.381943115234375,12.864412307739258,0.03768695518374443,-0.5485545992851257
1742766304333353700,1.384353759765625,12.690933227539062,-0.7088736891746521,0.17168502509593964
1742766304335751200,1.386751220703125,10.545767784118652,-1.2717852592468262,-0.26440688967704773
1742766304338148400,1.3891484375,9.176474571228027,-0.14656038582324982,-1.093519926071167
1742766304340545500,1.391545654296875,8.103293418884277,0.24167509377002716,-0.3601198196411133
1742766304342942700,1.393942626953125,8.318648338317871,-0.9403793215751648,0.9469595551490784
1742766304345340200,1.396340087890625,9.790233612060547,-0.5102694034576416,0.784247636795044
1742766304347737300,1.3987373046875,10.804790496826172,0.8069794178009033,-0.1495514214038849
1742766304350134500,1.401134521484375,10.850852012634277,0.1417747437953949,-0.04366901144385338
1742766304352532000,1.403531982421875,10.598409652709961,-0.4366901218891144,0.12083754688501358
1742766304354929200,1.40592919921875,9.667003631591797,0.1579262912273407,-0.2027917206287384
1742766304357326300,1.408326416015625,9.69093132019043,0.592223584651947,-0.4336991012096405
1742766304359723500,1.4107236328125,9.951749801635742,0.3852444589138031,-0.41156548261642456
1742766304362121000,1.413120849609375,9.195018768310547,0.3475574851036072,-0.1908276081085205
1742766304364518100,1.41551806640625,9.276374816894531,1.160519003868103,-0.02512463741004467
1742766304366915300,1.417915283203125,9.77707290649414,0.9768698215484619,-0.2602194547653198
1742766304369312500,1.4203125,8.458627700805664,-0.6287141442298889,-0.42293140292167664
1742766304371710000,1.4227099609375,6.864409923553467,-0.7339983582496643,0.12263216078281403
1742766304374107100,1.425107177734375,8.085946083068848,0.16510476171970367,0.7250252366065979
1742766304376504300,1.42750439453125,10.927422523498535,-0.19980068504810333,0.96370929479599
1742766304378901800,1.42990185546875,11.353943824768066,-0.2626122832298279,0.25304099917411804
1742766304381299000,1.432298828125,8.96650505065918,0.17766708135604858,-0.9439685344696045
1742766304383696100,1.434696044921875,7.097710132598877,0.12143574655056,-1.2299108505249023
1742766304386093300,1.43709326171875,7.6253275871276855,-0.26141586899757385,-0.4331009089946747
1742766304388490800,1.43949072265625,9.41635513305664,-0.5605186820030212,0.5174478888511658
1742766304390888000,1.441887939453125,10.301101684570312,-0.39840495586395264,0.41156548261642456
1742766304393285000,1.44428515625,10.267004013061523,0.010169495828449726,-0.7238288521766663
1742766304395682600,1.4466826171875,10.070194244384766,0.046061836183071136,-0.7136593461036682
1742766304398079700,1.449079833984375,9.138189315795898,-0.5072783827781677,0.7046862840652466
1742766304400477000,1.451476806640625,8.459824562072754,-0.6352944374084473,0.9720842242240906
1742766304402874000,1.4538740234375,9.107083320617676,0.09511470049619675,-0.22552353143692017
1742766304405271600,1.456271484375,10.777871131896973,0.19680966436862946,-0.8147560954093933
1742766304407668700,1.458668701171875,11.295319557189941,-0.16151553392410278,-0.2267199456691742
1742766304410066000,1.46106591796875,10.453643798828125,0.0568295381963253,-0.11904292553663254
1742766304412463000,1.463463134765625,9.936196327209473,0.4588237404823303,-0.8255237936973572
1742766304414860500,1.465860595703125,10.808978080749512,0.875174880027771,-0.4061816334724426
1742766304417257700,1.4682578125,10.890932083129883,0.03409772366285324,0.6795616149902344
1742766304419655000,1.470655029296875,9.815957069396973,-0.6927221417427063,0.2350948303937912
1742766304422052400,1.47305224609375,8.765507698059082,0.1908276081085205,-1.0671988725662231
1742766304424436200,1.475436279296875,7.956733703613281,0.4815555512905121,-1.1874382495880127
1742766304426846700,1.4778466796875,8.420342445373535,-0.1788634955883026,-0.08733802288770676
1742766304429244000,1.480243896484375,8.924630165100098,0.13280165195465088,0.39840495586395264
1742766304431641300,1.482641357421875,9.244669914245605,0.5958128571510315,-0.17527425289154053
1742766304434038500,1.48503857421875,9.54377269744873,0.8715856671333313,-0.5796613097190857
1742766304436435700,1.487435791015625,9.372088432312012,0.3595215976238251,-0.3152543902397156
1742766304438833000,1.4898330078125,8.797212600708008,-0.47916272282600403,0.014955141581594944
1742766304441230300,1.492230224609375,8.732605934143066,-0.6604190468788147,-0.08554340898990631
1742766304443627500,1.49462744140625,9.989436149597168,-0.37926238775253296,-0.3200400173664093
1742766304446011400,1.497011474609375,11.333005905151367,-0.5784648656845093,-0.45284169912338257
1742766304448422100,1.499422119140625,10.780263900756836,-0.38703906536102295,-0.8225327730178833
1742766304450819300,1.5018193359375,9.06401252746582,0.023330021649599075,-1.1353943347930908
1742766304453203200,1.504203125,7.992625713348389,0.2626122832298279,-1.0031908750534058
1742766304455613700,1.50661376953125,8.21276569366455,0.2997010350227356,-0.28893333673477173
1742766304458011100,1.50901123046875,9.073583602905273,-0.2632105052471161,1.153340458869934
1742766304460395000,1.51139501953125,11.251649856567383,-0.4582255482673645,2.142772674560547
1742766304462805500,1.513805419921875,13.577473640441895,-0.23270200192928314,0.9912267923355103
1742766304465202700,1.51620263671875,13.226924896240234,-0.1866401731967926,-0.46002015471458435
1742766304467600100,1.51860009765625,9.984052658081055,-0.3314059376716614,-0.3768695592880249
1742766304469997300,1.520997314453125,6.489933013916016,0.15672987699508667,-0.1094716340303421
1742766304472394500,1.52339453125,6.252445697784424,1.1784651279449463,-0.6801598072052002
1742766304474778400,1.5257783203125,8.139784812927246,1.6193426847457886,-1.1389836072921753
1742766304477189000,1.528189208984375,9.119645118713379,0.6299105882644653,-0.6993024349212646
1742766304479586300,1.53058642578125,10.219745635986328,-0.3613162338733673,0.45523449778556824
1742766304481970200,1.53297021484375,12.245867729187012,0.1381855010986328,0.8626125454902649
1742766304484381000,1.535380859375,12.765110969543457,0.3607180118560791,0.2386840581893921
1742766304486778000,1.537778076171875,10.63669490814209,-0.8458628058433533,0.23748764395713806
1742766304489162000,1.540161865234375,7.920242786407471,-0.8781659007072449,-0.05623133108019829
1742766304491572500,1.542572509765625,7.159325122833252,0.6131607890129089,-1.5080764293670654
1742766304493970000,1.544969970703125,7.750950813293457,0.7956135272979736,-2.5465614795684814
1742766304496367000,1.5473671875,8.526823043823242,-0.32721850275993347,-1.5308083295822144
1742766304498764300,1.549764404296875,10.289137840270996,-0.5706881880760193,0.5156532526016235
1742766304501161700,1.55216162109375,12.417552947998047,-0.20757736265659332,1.0079765319824219
1742766304503545600,1.554545654296875,14.006985664367676,-0.14656038582324982,-0.1902294009923935
1742766304505956000,1.5569560546875,12.728021621704102,-1.3926228284835815,0.22013968229293823
1742766304508353300,1.559353271484375,10.429117202758789,-1.8747764825820923,1.31365966796875
1742766304510750700,1.561750732421875,9.28893756866455,-0.3278166949748993,0.21954147517681122
1742766304513148000,1.56414794921875,8.33719253540039,0.6915257573127747,-1.4344971179962158
1742766304515545000,1.566545166015625,7.408178806304932,-0.10049854964017868,-0.8225327730178833
1742766304517929000,1.568928955078125,8.191828727722168,-0.3128615617752075,0.584446907043457
1742766304520339700,1.571339599609375,10.535597801208496,0.46719861030578613,0.6783652305603027
1742766304522737000,1.57373681640625,12.673584938049316,0.8183453679084778,-0.2961117923259735
1742766304525120800,1.576120849609375,11.706286430358887,-0.06759724020957947,0.005982056725770235
1742766304527531500,1.578531494140625,10.29033374786377,-0.2727817893028259,0.9511470198631287
1742766304529928700,1.5809287109375,10.89153003692627,1.164108157157898,-0.1381855010986328
1742766304532312600,1.5833125,10.849058151245117,1.4685949087142944,-2.293520450592041
1742766304534723300,1.585723388671875,8.788239479064941,-0.16450655460357666,-2.2307088375091553
1742766304537120500,1.58812060546875,7.237092018127441,-0.6747759580612183,-0.4295116662979126
1742766304539504400,1.59050439453125,7.950751304626465,0.25004997849464417,0.534795880317688
1742766304541915000,1.592914794921875,9.697511672973633,0.4450650215148926,0.3888336718082428
1742766304544312300,1.595312255859375,10.442875862121582,-0.2069791555404663,0.49351966381073
1742766304546709500,1.59770947265625,10.987841606140137,-0.882951557636261,0.9128618240356445
1742766304549106700,1.600106689453125,11.991630554199219,-0.6562315821647644,0.3732803463935852
1742766304551504100,1.602504150390625,11.527422904968262,0.01196411345154047,-1.1599208116531372
1742766304553887700,1.6048876953125,8.827720642089844,-0.2602194547653198,-2.035693883895874
1742766304556298500,1.607298583984375,6.511468410491943,-0.9379864931106567,-1.609771490097046
1742766304558695700,1.60969580078125,7.238288402557373,0.047258246690034866,-0.41156548261642456
1742766304561093000,1.612093017578125,9.924830436706543,0.7004988193511963,0.3326023519039154
1742766304563490300,1.614490234375,11.495718002319336,-0.48095735907554626,0.5419743061065674
1742766304565887500,1.616887451171875,11.649456977844238,-0.5150550603866577,1.103689432144165
1742766304568271400,1.619271240234375,11.069197654724121,0.40797626972198486,1.319043517112732
1742766304570682000,1.62168212890625,9.768099784851074,0.12143574655056,-0.22193430364131927
1742766304573079300,1.624079345703125,8.391031265258789,0.16689938306808472,-1.9471594095230103
1742766304575463200,1.626463134765625,7.382455825805664,0.4307080805301666,-1.7198412418365479
1742766304577874000,1.6288740234375,8.192426681518555,0.013160524889826775,-0.0568295381963253
1742766304580271000,1.63127099609375,9.46899700164795,0.2883351147174835,0.8697910308837891
1742766304582668300,1.633668212890625,10.166504859924316,0.9020941257476807,0.34277185797691345
1742766304585065500,1.6360654296875,10.392626762390137,0.3613162338733673,-0.35054850578308105
1742766304587463000,1.638462890625,10.708479881286621,0.43489551544189453,-0.13698910176753998
1742766304589860000,1.640860107421875,10.39202880859375,0.8769695162773132,0.18484555184841156
1742766304592257300,1.64325732421875,10.03011417388916,0.2386840581893921,-0.3122633695602417
1742766304594654500,1.645654541015625,10.948958396911621,-0.08135596662759781,-0.8925228714942932
1742766304597052000,1.648052001953125,11.063814163208008,-0.03768695518374443,-0.7166503667831421
1742766304599449000,1.650448974609375,9.393623352050781,-0.2470589429140091,-0.42771705985069275
1742766304601846300,1.65284619140625,8.02373218536377,-0.33379876613616943,-0.3008974492549896
1742766304604230100,1.655230224609375,7.954938888549805,-0.1501496136188507,-0.16689938306808472
1742766304606641000,1.657640869140625,9.197412490844727,0.15672987699508667,-0.020338991656899452
1742766304609038000,1.6600380859375,9.938589096069336,0.2793620526790619,-0.13579268753528595
1742766304611435300,1.662435302734375,9.860223770141602,0.024526432156562805,-0.5706881880760193
1742766304613832700,1.664832763671875,9.734002113342285,-0.24646073579788208,-0.7908278703689575
1742766304616230000,1.66722998046875,9.56471061706543,-0.5066801905632019,-0.4863412082195282
1742766304618627000,1.669626953125,9.838688850402832,-0.5958128571510315,-0.12083754688501358
1742766304621024300,1.672024169921875,9.68494987487793,-0.13280165195465088,0.07178468257188797
1742766304623421700,1.674421630859375,9.594620704650879,0.2267199456691742,0.16450655460357666
1742766304625819000,1.67681884765625,10.214960098266602,0.4420739710330963,0.24047867953777313
1742766304628216000,1.679216064453125,11.00279712677002,0.6837490797042847,0.22552353143692017
1742766304630613500,1.681613525390625,10.325628280639648,-0.035892341285943985,0.12801600992679596
1742766304633010700,1.6840107421875,9.143573760986328,-0.17347964644432068,-0.584446907043457
1742766304635408000,1.686407958984375,7.4464640617370605,0.6861419081687927,-1.25144624710083
1742766304637805000,1.68880517578125,7.491927623748779,0.4713860750198364,-1.0336993932724
1742766304640202500,1.691202392578125,10.090533256530762,-0.03888336941599846,-0.7046862840652466
1742766304642599700,1.693599609375,12.955938339233398,0.45224347710609436,-0.6658028960227966
1742766304644996900,1.695996826171875,13.440485000610352,-0.013160524889826775,-0.48813581466674805
1742766304647394000,1.69839404296875,11.356934547424316,-0.5222335457801819,-0.038285162299871445
1742766304649791500,1.70079150390625,8.173283576965332,0.024526432156562805,0.48574298620224
1742766304652188700,1.703188720703125,6.031707763671875,0.39122650027275085,0.4307080805301666
1742766304654572500,1.705572509765625,6.556334018707275,0.21236300468444824,-0.6095715761184692
1742766304656983300,1.7079833984375,8.751749038696289,-0.32183465361595154,-1.2077772617340088
1742766304659380500,1.71038037109375,10.16590690612793,-0.7513462901115417,-0.7034898400306702
1742766304661777700,1.712777587890625,9.766305923461914,-0.537188708782196,-0.49651068449020386
1742766304664175000,1.715175048828125,8.883952140808105,-0.13220344483852386,-0.7740781307220459
1742766304666572300,1.717572265625,8.583054542541504,-0.20338992774486542,-0.5443671345710754
1742766304668969500,1.719969482421875,9.20279598236084,-0.3332005441188812,0.14835500717163086
1742766304671366700,1.72236669921875,10.999207496643066,0.15672987699508667,0.18005990982055664
1742766304673764000,1.72476416015625,11.794820785522461,0.5754738450050354,-0.09092725813388824
1742766304676161300,1.727161376953125,11.024930000305176,-0.4163511395454407,-0.08015955984592438
1742766304678558500,1.729558349609375,10.02592658996582,-1.0474581718444824,0.2997010350227356
1742766304680956000,1.731955810546875,9.976275444030762,-0.4486542344093323,0.26979073882102966
1742766304683353000,1.73435302734375,10.206584930419922,-0.13459627330303192,-0.3194418251514435
1742766304685750300,1.736750244140625,9.873384475708008,-0.2757728099822998,-0.3858426511287689
1742766304688147500,1.7391474609375,9.678369522094727,0.0011964113218709826,-0.09870393574237823
1742766304690545000,1.741544921875,10.355538368225098,0.7016952633857727,-0.010767702013254166
1742766304692942000,1.743942138671875,10.838888168334961,0.3326023519039154,-0.2757728099822998
1742766304695339300,1.74633935546875,9.70349407196045,-0.5048855543136597,-0.43908295035362244
1742766304697736400,1.748736328125,9.087342262268066,0.1052841991186142,-0.3487538993358612
1742766304700134000,1.7511337890625,9.794421195983887,0.3170489966869354,-0.40677985548973083
1742766304702531000,1.753531005859375,11.103893280029297,0.20338992774486542,-0.5006981492042542
1742766304704928300,1.75592822265625,10.487741470336914,0.42412781715393066,-0.37447673082351685
1742766304707325700,1.75832568359375,8.37966537475586,0.3774677813053131,-0.3128615617752075
1742766304709723000,1.760722900390625,6.9134626388549805,0.7860422134399414,-0.5353940725326538
1742766304712106800,1.763106689453125,6.031707763671875,0.381655216217041,-0.45942193269729614
1742766304714517200,1.765517333984375,6.592226505279541,-0.8344969153404236,-0.33379876613616943
1742766304716914700,1.767914794921875,8.391031265258789,-0.6281159520149231,-0.6658028960227966
1742766304719312000,1.770311767578125,9.929018020629883,-0.16809579730033875,-0.924227774143219
1742766304721709000,1.772708984375,10.860424041748047,-0.6963114142417908,-0.6287141442298889
1742766304724106200,1.775106201171875,10.97169017791748,-0.7998009920120239,-0.6011967062950134
1742766304726503700,1.777503662109375,10.527223587036133,-0.08733802288770676,-0.5389832854270935
1742766304728900900,1.77990087890625,10.153943061828613,0.3152543902397156,-0.11724831163883209
1742766304731298000,1.782298095703125,9.52941608428955,0.01196411345154047,0.2679961323738098
1742766304733695500,1.784695556640625,9.220144271850586,-0.5778666734695435,0.6801598072052002
1742766304736092700,1.7870927734375,9.965508460998535,0.08195417374372482,0.5533402562141418
1742766304738489900,1.78948974609375,10.923833847045898,0.851844847202301,-0.22073788940906525
1742766304740887000,1.791886962890625,10.588838577270508,-0.015553346835076809,-0.47198426723480225
1742766304743284500,1.794284423828125,9.227920532226562,-0.03170489892363548,-0.19322042167186737
1742766304745681700,1.796681640625,8.357531547546387,0.6454638838768005,-0.6065805554389954
1742766304748078800,1.799078857421875,9.281160354614258,0.7250252366065979,-1.2556337118148804
1742766304750476000,1.80147607421875,10.360921859741211,0.5892325639724731,-1.2496516704559326
1742766304752873500,1.80387353515625,10.176674842834473,0.37507495284080505,-0.6789634227752686
1742766304755270700,1.806270751953125,9.57487964630127,-0.11964113265275955,0.05802594870328903
1742766304757667800,1.808667724609375,10.447063446044922,0.24526432156562805,0.17706887423992157
1742766304760065300,1.811065185546875,10.849058151245117,0.2991028428077698,-0.17108681797981262
1742766304762462500,1.81346240234375,9.719645500183105,-0.6616154313087463,-0.5258227586746216
1742766304764859600,1.815859619140625,8.847461700439453,-0.26979073882102966,-0.9888339638710022
1742766304767256800,1.8182568359375,9.41755199432373,0.5216353535652161,-1.2191431522369385
1742766304769654300,1.820654296875,10.136594772338867,-0.2991028428077698,-0.8727820515632629
1742766304772051500,1.823051513671875,10.01456069946289,-0.5018945336341858,-0.4253242313861847
1742766304774448600,1.82544873046875,9.860821723937988,-0.4420739710330963,-0.3966103494167328
1742766304776845800,1.827845703125,10.959726333618164,-0.5730810165405273,-0.4378865361213684
1742766304779243300,1.8302431640625,11.621341705322266,-0.20099709928035736,-0.10408778488636017
1742766304781640400,1.832640380859375,10.552348136901855,-0.5718846321105957,0.3535395562648773
1742766304784037600,1.83503759765625,9.90568733215332,-0.5617151260375977,0.7357929348945618
1742766304786435000,1.83743505859375,9.720243453979492,0.11844471842050552,0.2590230405330658
1742766304788832300,1.839832275390625,9.171091079711914,-0.08733802288770676,-0.607776939868927
1742766304791216000,1.842216064453125,8.496912956237793,-0.22612173855304718,-0.8638089895248413
1742766304793626600,1.844626708984375,9.010771751403809,-0.3032902777194977,-0.5174478888511658
1742766304796024000,1.847024169921875,10.786246299743652,-0.4911268353462219,0.015553346835076809
1742766304798408000,1.849407958984375,11.568100929260254,-0.1339980661869049,0.6538388133049011
1742766304800818400,1.851818359375,11.082358360290527,0.06041877344250679,0.5653043389320374
1742766304803216000,1.8542158203125,10.375877380371094,0.13459627330303192,-0.5617151260375977
1742766304805613000,1.856613037109375,9.784850120544434,0.6975077986717224,-1.3710874319076538
1742766304808010200,1.85901025390625,9.644271850585938,0.8195417523384094,-1.3178470134735107
1742766304810407400,1.861407470703125,9.838688850402832,0.21954147517681122,-0.7028916478157043
1742766304812804900,1.863804931640625,10.535597801208496,0.028115665540099144,0.17527425289154053
1742766304815202000,1.8662021484375,11.82473087310791,0.08434699475765228,0.2919243574142456
1742766304817599200,1.86859912109375,11.812169075012207,-0.49232324957847595,-0.31046873331069946
1742766304819996700,1.87099658203125,10.893324851989746,-0.23030917346477509,-0.6125625967979431
1742766304822393900,1.873393798828125,9.189635276794434,0,-0.016749758273363113
1742766304824791000,1.875791015625,8.231907844543457,-0.4713860750198364,0.04007977992296219
1742766304827188200,1.878188232421875,8.85942554473877,-0.4983053207397461,-0.851844847202301
1742766304829585700,1.880585693359375,10.02592658996582,-0.2793620526790619,-1.2484551668167114
1742766304831982800,1.88298291015625,10.535597801208496,-0.8141579031944275,-0.5670989751815796
1742766304834380000,1.885380126953125,10.727622032165527,-0.3415754437446594,0.41575294733047485
1742766304836777500,1.887777587890625,10.476973533630371,0.14416755735874176,0.542572557926178
1742766304839174700,1.890174560546875,10.105487823486328,-0.062213387340307236,0.24287149310112
1742766304841571800,1.89257177734375,9.593423843383789,-0.0729810893535614,0.3248256742954254
1742766304843969000,1.894968994140625,8.773882865905762,-0.09870393574237823,-0.1543370634317398
1742766304846366500,1.897366455078125,8.206185340881348,0.46420758962631226,-0.9122636318206787
1742766304848750300,1.899750244140625,7.590033531188965,0.7082754969596863,-0.6526423692703247
1742766304851160800,1.902160888671875,7.704290866851807,0.007178467698395252,0.13878370821475983
1742766304853558000,1.90455810546875,8.688937187194824,-0.15672987699508667,0.8219345808029175
1742766304855955500,1.90695556640625,10.314860343933105,0.5042873620986938,0.4211367964744568
1742766304858352600,1.9093525390625,11.1978120803833,0.7345965504646301,-1.017547845840454
1742766304860749800,1.911749755859375,10.533803939819336,0.5377869009971619,-1.1455638408660889
1742766304863147000,1.91414697265625,9.636494636535645,0.27397820353507996,-0.6735795736312866
1742766304865544400,1.91654443359375,9.239286422729492,0.22851456701755524,-0.9774680733680725
1742766304867941600,1.918941650390625,10.141979217529297,0.4654040038585663,-0.8542376756668091
1742766304870325500,1.921325439453125,11.187044143676758,0.09212367236614227,0.13639089465141296
1742766304872736300,1.923736328125,11.609975814819336,-0.8584251403808594,0.09690931439399719
1742766304875133400,1.926133544921875,10.320243835449219,-0.4336991012096405,-1.1306086778640747
1742766304877517300,1.928517333984375,8.663214683532715,0.3236292600631714,-1.2849457263946533
1742766304879927800,1.930927734375,8.088338851928711,-0.5222335457801819,-0.49710890650749207
1742766304882325200,1.9333251953125,9.471389770507812,-0.3978067636489868,-0.5814558863639832
1742766304884709000,1.935709228515625,11.389237403869629,0.3439682424068451,-1.4243277311325073
1742766304887119600,1.93811962890625,12.68016529083252,-0.243469700217247,-1.7018951177597046
1742766304889516800,1.940516845703125,12.415160179138184,-0.5066801905632019,-0.8835497498512268
1742766304891914200,1.942914306640625,11.311470985412598,-0.3248256742954254,0.18125630915164948
1742766304894311400,1.9453115234375,10.130613327026367,-0.5198407173156738,0.597607433795929
1742766304896708600,1.94770849609375,10.016953468322754,-0.2602194547653198,-0.3433700501918793
1742766304899106000,1.95010595703125,9.425926208496094,0.6538388133049011,-1.0091729164123535
1742766304901503200,1.952503173828125,9.705886840820312,0.9290133714675903,-0.3080759048461914
1742766304903900400,1.954900390625,10.463813781738281,0.004785645287483931,-0.05742774158716202
1742766304906297600,1.957297607421875,10.121041297912598,0.25064817070961,-0.5748756527900696
1742766304908695000,1.959695068359375,8.635098457336426,0.6957131624221802,-0.5688936114311218
1742766304911092200,1.96209228515625,8.402995109558105,0.4205385744571686,-0.32662028074264526
1742766304913489400,1.964489501953125,9.478569030761719,-0.19322042167186737,-0.6514459848403931
1742766304915886600,1.966886474609375,9.715457916259766,-0.34576287865638733,-0.9768698215484619
1742766304918284000,1.969283935546875,10.186843872070312,0.32662028074264526,-0.45523449778556824
1742766304920681200,1.97168115234375,10.97587776184082,0.12083754688501358,0.5659025311470032
1742766304923078400,1.974078369140625,10.689934730529785,-0.3601198196411133,1.2448660135269165
1742766304925475800,1.976475830078125,9.025727272033691,0.0771685317158699,0.37926238775253296
1742766304927859700,1.978859619140625,6.833901405334473,-0.243469700217247,-1.0217353105545044
1742766304930270200,1.981270263671875,7.259823799133301,0.2027917206287384,-1.0253244638442993
1742766304932667400,1.98366748046875,9.100502967834473,0.2476571500301361,-0.30508488416671753
1742766304935064800,1.98606494140625,10.348958015441895,-0.8434699773788452,-0.8093722462654114
1742766304937462000,1.9884619140625,10.200602531433105,-0.08973085135221481,-1.8047864437103271
1742766304939859200,1.990859130859375,9.229715347290039,0.5826523303985596,-1.4087743759155273
1742766304942256400,1.99325634765625,9.92542839050293,-0.6263213157653809,0.37806597352027893
1742766304944653800,1.99565380859375,11.696715354919434,-0.44805604219436646,1.0133603811264038
1742766304947051000,1.998051025390625,11.379666328430176,-0.02871387079358101,0.07357929646968842
1742766304949448200,2.0004482421875,9.641280174255371,-0.4983053207397461,-0.020338991656899452
1742766304951845600,2.002845703125,7.903493404388428,-0.24107688665390015,0.8231309652328491
1742766304954242800,2.005242919921875,7.561319351196289,-0.05802594870328903,0.582054078578949
1742766304956640000,2.007639892578125,9.391230583190918,-0.07477571070194244,-0.8219345808029175
1742766304959037400,2.010037353515625,12.025728225708008,0.4426721930503845,-1.6923238039016724
1742766304961434600,2.0124345703125,12.1537446975708,0.1417747437953949,-1.036690354347229
1742766304963831800,2.014831787109375,10.504491806030273,-0.1950150430202484,0.01734796352684498
1742766304966229000,2.01722900390625,9.549755096435547,-0.0526420995593071,-0.022133609279990196
1742766304968626400,2.01962646484375,10.714461326599121,-0.08315058797597885,-0.9678967595100403
1742766304971023600,2.022023681640625,11.172088623046875,0.052043892443180084,-1.3489537239074707
1742766304973420800,2.0244208984375,9.833903312683105,0.1866401731967926,-0.8075776696205139
1742766304975818200,2.026818359375,8.73619556427002,0.2626122832298279,-0.26620152592658997
1742766304978201900,2.029201904296875,8.640482902526855,0.6472585201263428,-0.3924229145050049
1742766304980612600,2.031612548828125,9.229117393493652,0.6993024349212646,-0.9846464991569519
1742766304983009800,2.034009765625,9.521639823913574,-0.18843477964401245,-1.5080764293670654
1742766304985407200,2.0364072265625,9.403793334960938,-0.34995031356811523,-0.8476574420928955
1742766304987804400,2.038804443359375,9.807581901550293,-0.355932354927063,0.31824541091918945
1742766304990201600,2.04120166015625,9.820143699645996,-0.6173482537269592,0.3403790295124054
1742766304992598800,2.043598876953125,9.068199157714844,-0.27038896083831787,-0.2745763957500458
1742766304994996200,2.045996337890625,8.10807991027832,-0.17168502509593964,-0.2955136001110077
1742766304997393400,2.048393310546875,8.3300142288208,-0.2835494875907898,-0.18723836541175842
1742766304999790600,2.05079052734375,9.072386741638184,0.5874379873275757,-0.7896314859390259
1742766305002188000,2.05318798828125,9.053842544555664,0.5102694034576416,-0.7758727669715881
1742766305004585200,2.055585205078125,9.726225852966309,-0.37507495284080505,0.15134602785110474
1742766305006969000,2.057968994140625,11.126625061035156,-0.0568295381963253,0.37866419553756714
1742766305009379600,2.060379638671875,11.398210525512695,0.05802594870328903,-0.2356930375099182
1742766305011777000,2.062777099609375,10.453045845031738,-0.2835494875907898,-0.3445664644241333
1742766305014174200,2.06517431640625,9.53360366821289,0.06520441919565201,0.049651071429252625
1742766305016571400,2.0675712890625,9.264410972595215,0.5712863802909851,-0.028115665540099144
1742766305018968600,2.069968505859375,8.86062240600586,0.6711867451667786,-0.8697910308837891
1742766305021352700,2.072352783203125,7.87358283996582,0.18843477964401245,-1.6408780813217163
1742766305023763200,2.07476318359375,7.292725086212158,-0.5515456199645996,-1.1479566097259521
1742766305026160400,2.077160400390625,9.366703987121582,0.4247260093688965,-0.005383851006627083
1742766305028544300,2.079544189453125,12.378669738769531,0.6424728631973267,0.07477571070194244
1742766305030955000,2.081955078125,13.014562606811523,-0.4378865361213684,-0.10827522724866867
1742766305033352200,2.084352294921875,11.157134056091309,-0.2027917206287384,0.20159530639648438
1742766305035736000,2.086736083984375,8.48734188079834,0.24107688665390015,-0.3613162338733673
1742766305038146800,2.089146728515625,7.327421188354492,0.22971096634864807,-1.500898003578186
1742766305040544000,2.0915439453125,7.153941631317139,0.2386840581893921,-1.8436698913574219
1742766305042941200,2.093941162109375,8.732605934143066,-0.7399803996086121,-1.3046865463256836
1742766305045338400,2.09633837890625,11.20499038696289,-1.109073281288147,-0.9361918568611145
1742766305047735800,2.09873583984375,13.350753784179688,-0.1495514214038849,-0.9601200819015503
1742766305050119700,2.10111962890625,13.548760414123535,-0.6777670383453369,-0.529412031173706
1742766305052530200,2.1035302734375,12.341581344604492,-1.129412293434143,-0.12023933976888657
1742766305054927600,2.105927734375,10.556535720825195,0.28893333673477173,-0.7088736891746521
1742766305057311500,2.1083115234375,8.895318031311035,0.9804590940475464,-0.9631111025810242
1742766305059722000,2.110721923828125,8.1493558883667,0.019142581149935722,-0.34695929288864136
1742766305062119200,2.113119140625,8.556734085083008,-0.7579265832901001,0.02871387079358101
1742766305064516600,2.1155166015625,9.798608779907227,-0.0364905446767807,0.0771685317158699
1742766305066913800,2.117913818359375,10.860424041748047,0.18424734473228455,-0.04307080805301666
1742766305069311000,2.12031103515625,10.063015937805176,-0.4995017349720001,0.22133609652519226
1742766305071694800,2.12269482421875,8.084749221801758,-0.13998012244701385,1.0139585733413696
1742766305074105600,2.125105712890625,7.704290866851807,0.4289134442806244,1.2556337118148804
1742766305076502800,2.127502685546875,8.889934539794922,0.6352944374084473,-0.26979073882102966
1742766305078886700,2.12988671875,8.643473625183105,0.7256234884262085,-1.8496519327163696
1742766305081297400,2.13229736328125,7.57507848739624,0.7214360237121582,-1.3663017749786377
1742766305083694600,2.134694580078125,8.01655387878418,0.33439695835113525,-0.02153540402650833
1742766305086091800,2.137091796875,10.242477416992188,-0.2955136001110077,0.6035895347595215
1742766305088489000,2.139489013671875,12.206984519958496,-0.23030917346477509,0.37028929591178894
1742766305090886400,2.141886474609375,11.729616165161133,-0.45104706287384033,-0.17706887423992157
1742766305093283600,2.14428369140625,9.908080101013184,-0.8171489238739014,-0.43190449476242065
1742766305095680800,2.1466806640625,8.496912956237793,0.20518454909324646,-0.7190431952476501
1742766305098078000,2.149077880859375,7.540980339050293,0.37148571014404297,-0.9583254456520081
1742766305100462000,2.151462158203125,7.812565803527832,-0.737587571144104,-0.9409775137901306
1742766305102872600,2.15387255859375,9.800403594970703,-1.058824062347412,-0.7998009920120239
1742766305105269800,2.156269775390625,11.942577362060547,-1.0462616682052612,-0.494716078042984
1742766305107653600,2.158653564453125,12.915260314941406,-1.4267204999923706,-0.26081767678260803
1742766305110064400,2.161064453125,12.464811325073242,-0.607776939868927,-0.6610172390937805
1742766305112461600,2.163461669921875,11.200204849243164,0.18903298676013947,-0.22492532432079315
1742766305114858800,2.165858642578125,11.000404357910156,0.0891326442360878,0.3367897868156433
1742766305117256200,2.168256103515625,10.561919212341309,-0.20877377688884735,-0.8685946464538574
1742766305119653400,2.1706533203125,9.372686386108398,-0.18364913761615753,-1.7988044023513794
1742766305122050600,2.173050537109375,9.425328254699707,-0.1453639715909958,-0.8321040868759155
1742766305124448000,2.175447998046875,10.439287185668945,0.04785645380616188,-0.1950150430202484
1742766305126845200,2.17784521484375,10.03848934173584,0.3152543902397156,-0.45942193269729614
1742766305129242400,2.180242431640625,9.605986595153809,0.8721838593482971,-0.5706881880760193
1742766305131639600,2.1826396484375,9.58205795288086,0.8524430394172668,-0.5030909776687622
1742766305134037000,2.185037109375,9.073583602905273,0.486939400434494,-0.714257538318634
1742766305136420900,2.1874208984375,7.763513088226318,0.6215356588363647,-0.9194421172142029
1742766305138831400,2.189831298828125,7.057032108306885,0.357128769159317,-0.9672985672950745
1742766305141228800,2.192228759765625,7.517052173614502,-0.38344982266426086,-0.08614161610603333
1742766305143612700,2.19461279296875,8.907281875610352,-0.4253242313861847,0.8913264274597168
1742766305146023200,2.197023193359375,10.51107120513916,-0.3290131092071533,0.2925225794315338
1742766305148420400,2.19942041015625,11.408380508422852,-0.4713860750198364,-0.7100701332092285
1742766305150817800,2.20181787109375,10.340582847595215,-0.11724831163883209,-0.6867401003837585
1742766305153215000,2.204215087890625,8.983254432678223,-0.0005982056609354913,-0.27816563844680786
1742766305155612200,2.206612060546875,8.2157564163208,0.030508488416671753,-0.5760720372200012
1742766305158009600,2.209009521484375,8.583653450012207,0.15493527054786682,-1.0097711086273193
1742766305160406800,2.21140673828125,10.679765701293945,-0.4091726839542389,-0.3696911036968231
1742766305162804000,2.213803955078125,11.967103958129883,-1.0043872594833374,0.6861419081687927
1742766305165187800,2.216187744140625,11.37069320678711,-0.44805604219436646,0.2805584669113159
1742766305167598600,2.2185986328125,9.629316329956055,-0.3008974492549896,-0.5718846321105957
1742766305169995800,2.220995849609375,8.568099975585938,-0.5515456199645996,-0.27038896083831787
1742766305172393000,2.22339306640625,9.441479682922363,-0.28115665912628174,-0.18065811693668365
1742766305174790100,2.2257900390625,11.166107177734375,0.2021935135126114,-1.0151549577713013
1742766305177187600,2.2281875,12.662817001342773,0.43190449476242065,-0.9888339638710022
1742766305179571500,2.230571533203125,12.735199928283691,0.4145565330982208,-0.20817556977272034
1742766305181982000,2.23298193359375,11.050653457641602,0.2709871530532837,0.20877377688884735
1742766305184379400,2.23537939453125,9.957133293151855,0.34277185797691345,-0.397208571434021
1742766305186776600,2.237776611328125,9.879964828491211,0.3236292600631714,-1.5828521251678467
1742766305189173800,2.240173828125,9.235696792602539,0.08973085135221481,-1.7306089401245117
1742766305191571000,2.242571044921875,9.08554744720459,0.26979073882102966,-0.9529415965080261
1742766305193968400,2.244968505859375,9.885348320007324,0.7286145091056824,-0.6287141442298889
1742766305196365600,2.247365478515625,10.816156387329102,0.6753742098808289,-0.373878538608551
1742766305198762800,2.2497626953125,10.86879825592041,-0.14715859293937683,-0.16869398951530457
1742766305201160000,2.252159912109375,9.391828536987305,-0.5318048596382141,-0.5383850932121277
1742766305203557400,2.254557373046875,7.9351983070373535,-0.5282155871391296,-0.6119644045829773
1742766305205954600,2.25695458984375,8.155936241149902,-0.17108681797981262,-0.25304099917411804
1742766305208351700,2.259351806640625,9.101698875427246,-0.2799602448940277,-0.20338992774486542
1742766305210749200,2.261749267578125,9.42054271697998,-0.5682953596115112,-0.9343972206115723
1742766305213146400,2.264146484375,9.045467376708984,0.003589233849197626,-1.0636097192764282
1742766305215543600,2.26654345703125,9.288339614868164,-0.2847459018230438,0.14835500717163086
1742766305217940700,2.268940673828125,10.478170394897461,-1.197009563446045,0.8554341197013855
1742766305220338200,2.271338134765625,11.204392433166504,-0.6065805554389954,0.2231307178735733
1742766305222735400,2.2737353515625,10.758728981018066,-0.14356936514377594,-0.13519448041915894
1742766305225132500,2.276132568359375,9.836296081542969,-0.3930211067199707,0.28893333673477173
1742766305227529700,2.27852978515625,9.079565048217773,-0.022133609279990196,0.46899324655532837
1742766305229927200,2.28092724609375,9.517452239990234,0.22133609652519226,0.18843477964401245
1742766305232324400,2.283324462890625,10.694721221923828,0.01196411345154047,-0.06759724020957947
1742766305234721500,2.285721435546875,10.886744499206543,-0.0526420995593071,-0.10169496387243271
1742766305237119000,2.288118896484375,9.957133293151855,0.3397808074951172,0.2069791555404663
1742766305239516200,2.29051611328125,9.78126049041748,0.6586244106292725,-0.21415762603282928
1742766305241913300,2.292913330078125,10.479366302490234,0.30508488416671753,-1.2131611108779907
1742766305244310500,2.295310546875,11.322836875915527,0.30568310618400574,-1.43389892578125
1742766305246708000,2.2977080078125,11.076375961303711,0.5084748268127441,-0.6945167779922485
1742766305249105200,2.300105224609375,10.414162635803223,0.5605186820030212,-0.16390834748744965
1742766305251502300,2.30250244140625,9.7005033493042,0.18065811693668365,0.1543370634317398
1742766305253899500,2.3048994140625,9.056833267211914,-0.5252245664596558,0.2757728099822998
1742766305256297000,2.307296875,8.397012710571289,-0.7292127013206482,-0.3852444589138031
1742766305258680800,2.309680908203125,8.313861846923828,-0.5850451588630676,-0.9463613629341125
1742766305261091300,2.31209130859375,9.290732383728027,-0.08673982322216034,-0.46002015471458435
1742766305263488800,2.31448876953125,10.067801475524902,-0.10887342691421509,-0.09990034252405167
1742766305265886000,2.316885986328125,9.764511108398438,-0.40797626972198486,-0.8057830333709717
1742766305268283100,2.319283203125,9.196813583374023,0.15314064919948578,-1.2059825658798218
1742766305270680300,2.321680419921875,9.287740707397461,0.18843477964401245,-0.3678964674472809
1742766305273077800,2.324077880859375,9.765707015991211,-0.494716078042984,0.45523449778556824
1742766305275475000,2.326474853515625,9.829715728759766,0.2231307178735733,0.46839502453804016
1742766305277872000,2.3288720703125,9.491130828857422,0.43549370765686035,0.017946170642971992
1742766305280269300,2.331269287109375,8.5764741897583,-0.42771705985069275,-0.34576287865638733
1742766305282666800,2.333666748046875,7.872984886169434,-0.10229317098855972,-0.39481574296951294
1742766305285064000,2.33606396484375,8.263612747192383,0.46061834692955017,-0.059820566326379776
1742766305287461000,2.338461181640625,9.513264656066895,0.16510476171970367,0.01196411345154047
1742766305289858600,2.340858642578125,10.27597713470459,0.5359922647476196,-0.32542386651039124
1742766305292255700,2.343255859375,10.080962181091309,0.8045865893363953,-0.3002992272377014
1742766305294653000,2.34565283203125,10.41176986694336,-0.047258246690034866,-0.267397940158844
1742766305297050000,2.348050048828125,10.713265419006348,0.009571290574967861,-0.5102694034576416
1742766305299447600,2.350447509765625,10.355538368225098,0.6526423692703247,-0.6352944374084473
1742766305301844700,2.3528447265625,9.760323524475098,0.3601198196411133,-0.4492524564266205
1742766305304242000,2.355241943359375,10.329814910888672,0.4307080805301666,-0.10767702013254166
1742766305306639400,2.357639404296875,9.708279609680176,0.3523431420326233,-0.030508488416671753
1742766305309036500,2.36003662109375,8.820542335510254,-0.42771705985069275,-0.6945167779922485
1742766305311433700,2.362433837890625,8.514859199523926,-0.5467599630355835,-1.3459627628326416
1742766305313831000,2.364830810546875,9.09093189239502,-0.22791635990142822,-1.1413763761520386
1742766305316214800,2.36721484375,10.838888168334961,-0.06520441919565201,-0.5539384484291077
1742766305318625500,2.36962548828125,11.491530418395996,-0.19621145725250244,-0.4085744619369507
1742766305321022700,2.372022705078125,11.167303085327148,-0.3128615617752075,-0.5509474277496338
1742766305323420200,2.374420166015625,11.174481391906738,-0.09511470049619675,-0.41216370463371277
1742766305325817300,2.3768173828125,10.334002494812012,-0.3445664644241333,0.15493527054786682
1742766305328214500,2.379214599609375,8.918049812316895,-0.5084748268127441,0.42412781715393066
1742766305330598400,2.381598388671875,8.194819450378418,0.24107688665390015,-0.037088751792907715
1742766305333009200,2.384009033203125,8.57767105102539,0.2829512655735016,0.07657032459974289
1742766305335406300,2.38640625,10.468599319458008,-0.3403790295124054,0.5886343717575073
1742766305337803500,2.388803466796875,11.054242134094238,-0.4504488706588745,0.07657032459974289
1742766305340201000,2.391200927734375,9.614959716796875,0.07477571070194244,-0.784247636795044
1742766305342598100,2.39359814453125,8.080561637878418,0.5461617708206177,-0.5300102233886719
1742766305344982000,2.39598193359375,7.548757076263428,0.6358926296234131,0.50907301902771
1742766305347392500,2.398392578125,9.005986213684082,0.1417747437953949,0.7657032608985901
1742766305349790000,2.4007900390625,11.000404357910156,0.0364905446767807,-0.5300102233886719
1742766305352173800,2.403173828125,11.067402839660645,0.4175475537776947,-1.5852450132369995
1742766305354584300,2.405584228515625,9.976874351501465,0.2512463629245758,-1.1359925270080566
1742766305356981500,2.4079814453125,8.738588333129883,0.020937198773026466,-0.39601215720176697
1742766305359379000,2.41037890625,8.644669532775879,0.3128615617752075,-0.08015955984592438
1742766305361776000,2.412776123046875,9.374481201171875,0.1818545162677765,0.19322042167186737
1742766305364173300,2.41517333984375,9.722636222839355,-0.48813581466674805,0.050847481936216354
1742766305366570800,2.41757080078125,9.235696792602539,-0.26440688967704773,-0.2273181527853012
1742766305368968000,2.419968017578125,8.524430274963379,-0.0526420995593071,-0.3439682424068451
1742766305371365000,2.422365234375,7.602595806121826,-0.3290131092071533,-0.3523431420326233
1742766305373749000,2.4247490234375,7.4841508865356445,-0.022133609279990196,-0.20817556977272034
1742766305376159700,2.42715966796875,8.550751686096191,0.13160525262355804,-0.09511470049619675
1742766305378557000,2.429556884765625,10.522438049316406,-0.4977070987224579,-0.11246266216039658
1742766305380940800,2.43194091796875,12.195618629455566,-0.542572557926178,0.05922235921025276
1742766305383351300,2.434351318359375,11.822338104248047,-0.12023933976888657,0.3529413342475891
1742766305385748700,2.436748779296875,9.927223205566406,0.06699903309345245,0.5581258535385132
1742766305388146000,2.43914599609375,8.514859199523926,-0.4731806814670563,0.16809579730033875
1742766305390543000,2.441543212890625,8.366504669189453,-0.5341976284980774,-0.37926238775253296
1742766305392940500,2.4439404296875,9.159127235412598,-0.26919254660606384,-0.3080759048461914
1742766305395324400,2.446324462890625,10.955538749694824,-0.617946445941925,0.08075776696205139
1742766305397735000,2.44873486328125,11.883355140686035,-0.42293140292167664,0.17946170270442963
1742766305400132000,2.451132080078125,11.264810562133789,0.38763725757598877,0.08554340898990631
1742766305402529500,2.453529541015625,9.796216011047363,0.592223584651947,-0.20518454909324646
1742766305404926700,2.4559267578125,9.014959335327148,0.9523434042930603,-0.7399803996086121
1742766305407324000,2.458323974609375,7.816753387451172,1.3908281326293945,-0.763310432434082
1742766305409707800,2.460707763671875,8.131409645080566,0.7214360237121582,-0.17706887423992157
1742766305412118500,2.463118408203125,9.583852767944336,-0.09272187948226929,0.44805604219436646
1742766305414515700,2.465515625,11.299507141113281,0.3194418251514435,0.47976094484329224
1742766305416913000,2.467912841796875,10.454241752624512,0.02273181453347206,0.08075776696205139
1742766305419310300,2.470310302734375,7.901100158691406,-0.5060819983482361,-0.30209386348724365
1742766305421707500,2.47270751953125,6.22492790222168,-0.1333998590707779,-0.615553617477417
1742766305424091400,2.47509130859375,6.471388816833496,0.4773681163787842,-0.6269195079803467
1742766305426502000,2.477501953125,8.009973526000977,0.45583271980285645,-0.6879364848136902
1742766305428899300,2.4798994140625,8.85942554473877,-0.07417750358581543,-1.0875378847122192
1742766305431296500,2.482296630859375,9.404391288757324,-0.381655216217041,-1.052243709564209
1742766305433693700,2.484693603515625,11.10748291015625,-0.4905286431312561,-0.36610186100006104
1742766305436091000,2.4870908203125,12.872787475585938,-0.6652047038078308,0.3188436031341553
1742766305438475000,2.48947509765625,13.018750190734863,-0.397208571434021,0.3768695592880249
1742766305440885500,2.491885498046875,11.736795425415039,0.17946170270442963,0.02632104977965355
1742766305443282700,2.49428271484375,9.392427444458008,-0.1902294009923935,-0.40378883481025696
1742766305445666600,2.49666650390625,6.709474563598633,-0.6550351977348328,-0.7525427341461182
1742766305448077300,2.499077392578125,5.91087007522583,0.04247260093688965,-0.4181457459926605
1742766305450474500,2.501474609375,7.616354465484619,0.12023933976888657,0.17288143932819366
1742766305452858400,2.5038583984375,10.457233428955078,-0.20997019112110138,0.09810572862625122
1742766305455269000,2.50626904296875,12.1597261428833,0.48454657196998596,-0.2919243574142456
1742766305457666300,2.508666259765625,11.930015563964844,0.49651068449020386,-0.24406790733337402
1742766305460063500,2.5110634765625,9.850652694702148,0.02153540402650833,-0.07058826833963394
1742766305462460700,2.513460693359375,8.193024635314941,0.37447673082351685,-0.09810572862625122
1742766305464858000,2.515858154296875,8.303692817687988,0.7483552694320679,-0.381655216217041
1742766305467255300,2.51825537109375,9.489336013793945,0.5748756527900696,-0.16689938306808472
1742766305469652500,2.520652587890625,10.27777099609375,0.349352091550827,-0.04127619042992592
1742766305472050000,2.5230498046875,10.009775161743164,0.3529413342475891,-0.4827519655227661
1742766305474447000,2.525447021484375,9.738189697265625,-0.22791635990142822,-0.7334001660346985
1742766305476844300,2.52784423828125,9.448657989501953,-0.8733802437782288,-0.5545366406440735
1742766305479241700,2.53024169921875,9.728020668029785,-0.9780662655830383,0.03409772366285324
1742766305481639000,2.532638916015625,10.098309516906738,-0.23389841616153717,0.31764721870422363
1742766305484036000,2.5350361328125,10.433304786682129,0.5521438121795654,-0.4019941985607147
1742766305486433300,2.537433349609375,10.680961608886719,-0.08793623000383377,-1.0109676122665405
1742766305488817200,2.539817138671875,11.258829116821289,-0.7657032608985901,-0.1537388563156128
1742766305491228000,2.542227783203125,11.665010452270508,-0.20937198400497437,0.7435696125030518
1742766305493625000,2.544625,9.769296646118164,-0.3846462368965149,0.35114672780036926
1742766305496009000,2.547009033203125,7.4841508865356445,-0.4139583110809326,0.3565305769443512
1742766305498419700,2.549419677734375,7.491927623748779,0.1543370634317398,0.664606511592865
1742766305500817000,2.55181689453125,8.675178527832031,-0.24646073579788208,-0.29730820655822754
1742766305503214000,2.554214111328125,9.598209381103516,-0.14775680005550385,-0.9182456731796265
1742766305505611500,2.556611572265625,10.198209762573242,0.1788634955883026,-0.35114672780036926
1742766305508008700,2.5590087890625,10.479366302490234,-0.4899304509162903,0.13040883839130402
1742766305510406000,2.561406005859375,10.52662467956543,-0.025722842663526535,-0.47676992416381836
1742766305512803000,2.563802978515625,9.826126098632812,0.8279166221618652,-1.709073543548584
1742766305515200500,2.566200439453125,8.867202758789062,0.4570291340351105,-1.8658034801483154
1742766305517597700,2.56859765625,9.005388259887695,0.5688936114311218,-1.0414760112762451
1742766305519995000,2.570994873046875,9.876974105834961,1.0396814346313477,-0.2554338276386261
1742766305522392000,2.57339208984375,10.661819458007812,0.3326023519039154,0.28654050827026367
1742766305524789500,2.57578955078125,10.923234939575195,-0.3026920557022095,0.6544370055198669
1742766305527186700,2.578186767578125,9.403793334960938,-0.3170489966869354,0.2189432680606842
1742766305529583900,2.580583984375,7.390830993652344,-0.6681957244873047,-0.4540380835533142
1742766305531967700,2.5829677734375,7.590631484985352,-0.589830756187439,-0.5060819983482361
1742766305534378500,2.58537841796875,9.67657470703125,-0.6759724020957947,-0.6215356588363647
1742766305536775700,2.587775634765625,12.022737503051758,-0.5144568681716919,-1.1635099649429321
1742766305539159600,2.59015966796875,11.887542724609375,-0.062213387340307236,-1.7138592004776
1742766305541570300,2.5925703125,9.5862455368042,-0.7920243144035339,-1.4261223077774048
1742766305543967500,2.594967529296875,9.236893653869629,-0.7698906660079956,0.08374879509210587
1742766305546351400,2.597351318359375,10.931610107421875,-0.16151553392410278,1.0163514614105225
1742766305548761900,2.599761962890625,13.184453010559082,-0.2267199456691742,0.7591229677200317
1742766305551159300,2.6021591796875,13.759926795959473,0.1339980661869049,0.22552353143692017
1742766305553556500,2.604556396484375,11.23190975189209,-0.09152546525001526,-0.0933200865983963
1742766305555953700,2.60695361328125,8.047062873840332,-0.3032902777194977,-0.7345965504646301
1742766305558351000,2.60935107421875,6.393621921539307,0.537188708782196,-1.4691931009292603
1742766305560735000,2.61173486328125,7.546962738037109,1.0959128141403198,-1.3543375730514526
1742766305563145500,2.6141455078125,9.931410789489746,0.48873403668403625,-0.1585244983434677
1742766305565542700,2.616542724609375,11.486146926879883,0.32961133122444153,0.760917603969574
1742766305567926800,2.6189267578125,11.4382905960083,0.7172485589981079,0.16271193325519562
1742766305570337300,2.621337158203125,10.274182319641113,0.23748764395713806,-0.49351966381073
1742766305572734500,2.623734375,8.645268440246582,-0.1788634955883026,-0.5736792087554932
1742766305575118300,2.626118408203125,7.581658363342285,0.18963119387626648,-0.5210371017456055
1742766305577529000,2.628529052734375,7.741977691650391,0.41096729040145874,-0.8111668825149536
1742766305579926300,2.63092626953125,9.418747901916504,0.8482556343078613,-0.9463613629341125
1742766305582323500,2.633323486328125,10.660623550415039,0.7734799385070801,-0.4301098585128784
1742766305584721000,2.635720947265625,10.88136100769043,-0.40259242057800293,-0.3032902777194977
1742766305587118000,2.6381181640625,10.377073287963867,-0.7974081635475159,-0.494716078042984
1742766305589515300,2.640515380859375,9.363115310668945,-0.5401797294616699,-0.7818548083305359
1742766305591912400,2.642912353515625,8.62612533569336,-0.6101697683334351,-0.8662018179893494
1742766305594310000,2.645309814453125,9.366703987121582,-0.064606212079525,-0.9361918568611145
1742766305596693800,2.64769384765625,11.12901782989502,0.10049854964017868,-0.7447660565376282
1742766305599104300,2.650104248046875,12.529417991638184,-0.41515472531318665,0.07357929646968842
1742766305601501400,2.65250146484375,11.736795425415039,-0.6358926296234131,0.5120640397071838
1742766305603899000,2.65489892578125,9.076574325561523,-0.5916253924369812,0.17108681797981262
1742766305606296000,2.657296142578125,7.048657417297363,0.3002992272377014,-0.03888336941599846
1742766305608693200,2.659693359375,7.456633567810059,0.6807580590248108,-0.12323036789894104
1742766305611090700,2.662090576171875,10.062417030334473,-0.0568295381963253,0.009571290574967861
1742766305613487900,2.66448779296875,12.471391677856445,0.040677983313798904,-0.08075776696205139
1742766305615885000,2.666885009765625,12.9954195022583,0.3332005441188812,-0.45643091201782227
1742766305618282200,2.6692822265625,10.65942668914795,-0.3523431420326233,-0.4169493317604065
1742766305620679700,2.6716796875,7.378866672515869,-0.029312077909708023,0.06340979784727097
1742766305623076900,2.674076904296875,6.607779502868652,0.7238288521766663,-0.08315058797597885
1742766305625474000,2.67647412109375,8.897112846374512,0.8051848411560059,-0.9882357716560364
1742766305627871200,2.678871337890625,12.242877006530762,0.7417750358581543,-1.0911271572113037
1742766305630268700,2.6812685546875,14.142778396606445,0.5874379873275757,-0.2392822653055191
1742766305632652500,2.683652587890625,13.6175537109375,-0.023330021649599075,-0.06041877344250679
1742766305635063000,2.68606298828125,11.063215255737305,-0.02273181453347206,-0.9212366938591003
1742766305637460500,2.68846044921875,7.858029365539551,-0.0891326442360878,-1.1994023323059082
1742766305639844400,2.69084423828125,6.542575359344482,-0.26500511169433594,-0.16450655460357666
1742766305642254800,2.6932548828125,7.868198871612549,-0.47916272282600403,0.8697910308837891
1742766305644652000,2.695652099609375,10.52782154083252,-0.1339980661869049,0.24586252868175507
1742766305647049500,2.698049560546875,10.49671459197998,0.026919255033135414,-0.7244270443916321
1742766305649446700,2.70044677734375,7.887341499328613,-0.5288137793540955,-0.597607433795929
1742766305651843800,2.70284375,5.970092296600342,-0.8949156403541565,-0.04247260093688965
1742766305654227700,2.705227783203125,6.598208427429199,-0.5258227586746216,-0.09930214285850525
1742766305656638500,2.707638427734375,10.04566764831543,0.14476576447486877,-0.48394837975502014
1742766305659035600,2.71003564453125,13.24427318572998,-0.059820566326379776,-0.16450655460357666
1742766305661419500,2.71241943359375,14.279169082641602,0.028115665540099144,0.6957131624221802
1742766305663830300,2.714830322265625,12.624532699584961,0.12023933976888657,0.5473581552505493
1742766305666227500,2.7172275390625,9.192028045654297,-0.649053156375885,-0.4576273262500763
1742766305668611300,2.719611328125,6.538387775421143,-0.7447660565376282,-0.2667997181415558
1742766305671022000,2.72202197265625,7.436892986297607,0.33858439326286316,0.698704183101654
1742766305673419300,2.724419189453125,10.849058151245117,0.7292127013206482,0.3164508044719696
1742766305675803100,2.72680322265625,13.458431243896484,0.8404789566993713,-1.074377417564392
1742766305678213600,2.729213623046875,12.882957458496094,0.8632107973098755,-1.1682956218719482
1742766305680611000,2.731611083984375,10.503294944763184,-0.07537391036748886,-0.08673982322216034
1742766305682995000,2.733994873046875,8.49870777130127,-0.3314059376716614,0.19740787148475647
1742766305685405400,2.736405517578125,8.383254051208496,0.4815555512905121,-0.26919254660606384
1742766305687803000,2.738802978515625,9.951150894165039,0.4731806814670563,0.1459621787071228
1742766305690186500,2.7411865234375,11.412567138671875,0.06819544732570648,0.664606511592865
1742766305692597200,2.74359716796875,10.094121932983398,0.5150550603866577,-0.3206382393836975
1742766305694994400,2.745994384765625,7.189235687255859,0.5395814776420593,-1.1521440744400024
1742766305697378300,2.74837841796875,5.277370452880859,-0.3074777126312256,-1.0803594589233398
1742766305699789000,2.7507890625,5.079962253570557,-1.0277173519134521,-0.9984052777290344
1742766305702186200,2.753186279296875,6.752545356750488,-0.2063809484243393,-1.007378339767456
1742766305704570000,2.755570068359375,10.130014419555664,0.7034898400306702,-0.8913264274597168
1742766305706980900,2.75798095703125,13.790434837341309,-0.04905286431312561,-0.21774685382843018
1742766305709378000,2.7603779296875,15.370296478271484,-0.6813562512397766,0.40378883481025696
1742766305711762000,2.762761962890625,13.26820182800293,0.3762713670730591,0.02392822690308094
1742766305714172700,2.765172607421875,8.878568649291992,0.33738797903060913,-0.7286145091056824
1742766305716569900,2.76756982421875,5.170291423797607,-0.129810631275177,-0.8177471160888672
1742766305718953700,2.76995361328125,5.406582832336426,0.17587246000766754,-0.6071787476539612
1742766305721364200,2.7723642578125,8.698508262634277,-0.1950150430202484,0.01196411345154047
1742766305723761700,2.77476171875,12.692129135131836,-0.381655216217041,0.3445664644241333
1742766305726145500,2.7771455078125,13.180265426635742,0.09631111472845078,-0.14895321428775787
1742766305728556000,2.77955615234375,10.051051139831543,-0.3278166949748993,0.037088751792907715
1742766305730953200,2.781953125,7.5463643074035645,-0.4181457459926605,0.3798605799674988
1742766305733337300,2.78433740234375,7.781459331512451,0.33918261528015137,-0.6400800347328186
1742766305735747800,2.786747802734375,9.66640567779541,0.5742774605751038,-1.6809579133987427
1742766305738145000,2.78914501953125,11.513066291809082,0.7980063557624817,-1.5696916580200195
1742766305740529000,2.79152880859375,11.795419692993164,0.9337990283966064,-0.6083751320838928
1742766305742939600,2.793939697265625,11.01416301727295,0.5264210104942322,0.3152543902397156
1742766305745336800,2.7963369140625,9.946365356445312,0.45942193269729614,0.022133609279990196
1742766305747720700,2.798720703125,8.719446182250977,0.04247260093688965,-0.9343972206115723
1742766305750131500,2.80113134765625,9.026923179626465,-0.867398202419281,-0.8590233325958252
1742766305752528600,2.803528564453125,10.354341506958008,-0.8967102766036987,-0.6526423692703247
1742766305754912500,2.80591259765625,11.375478744506836,-0.10827522724866867,-1.212562918663025
1742766305757323000,2.808322998046875,11.48076343536377,0.30209386348724365,-1.3962119817733765
1742766305759720400,2.810720458984375,11.353344917297363,0.14656038582324982,-0.8877372145652771
1742766305762117600,2.81311767578125,10.385448455810547,-0.26081767678260803,-0.30628129839897156
1742766305764514800,2.815514892578125,9.618548393249512,-0.22612173855304718,-0.3613162338733673
1742766305766912300,2.817912353515625,9.719645500183105,0.15194423496723175,-0.722034215927124
1742766305769309400,2.820309326171875,9.430113792419434,-0.50129634141922,0.11844471842050552
1742766305771706600,2.82270654296875,9.411569595336914,-0.48873403668403625,1.3752747774124146
1742766305774103800,2.825103759765625,9.302098274230957,0.2356930375099182,0.6652047038078308
1742766305776501200,2.827501220703125,9.119645118713379,0.18843477964401245,-0.8488538265228271
1742766305778898400,2.8298984375,8.723034858703613,0.12801600992679596,-1.0241280794143677
1742766305781295600,2.832295654296875,8.673981666564941,-0.18484555184841156,-0.19262222945690155
1742766305783692800,2.83469287109375,9.155537605285645,-0.8069794178009033,-0.2111666053533554
1742766305786090200,2.83709033203125,9.523433685302734,0.05144568532705307,-1.0408778190612793
1742766305788487400,2.8394873046875,9.678967475891113,0.7704889178276062,-0.9756734371185303
1742766305790884600,2.841884521484375,10.6295166015625,0.600000262260437,0.04486542567610741
1742766305793282000,2.844281982421875,11.036295890808105,0.7034898400306702,0.17288143932819366
1742766305795679200,2.84667919921875,10.18026351928711,0.8847461938858032,-0.8763712644577026
1742766305798076400,2.849076416015625,8.880363464355469,0.20997019112110138,-0.8859425783157349
1742766305800473600,2.8514736328125,8.504091262817383,-0.3684946894645691,0.006580262444913387
1742766305802871000,2.85387109375,8.185248374938965,-0.6221339106559753,-0.4169493317604065
1742766305805255000,2.8562548828125,7.88913631439209,-0.3170489966869354,-1.2149556875228882
1742766305807665400,2.85866552734375,9.487542152404785,0.25064817070961,-1.1108678579330444
1742766305810062600,2.8610625,11.93181037902832,-0.07776673883199692,-0.32303106784820557
1742766305812446700,2.86344677734375,13.168899536132812,-0.5467599630355835,0.1333998590707779
1742766305814857200,2.865857177734375,12.407383918762207,-0.2147558331489563,-0.4486542344093323
1742766305817254400,2.86825439453125,10.713863372802734,-0.4546363055706024,-0.8033902049064636
1742766305819638300,2.87063818359375,8.678169250488281,-0.9505487680435181,-0.07238288223743439
1742766305822049000,2.873049072265625,8.363512992858887,-0.27756741642951965,0.6125625967979431
1742766305824446200,2.8754462890625,10.306485176086426,0.3774677813053131,0.06400800496339798
1742766305826830000,2.877830078125,11.761919975280762,0.008374879136681557,-0.9176474809646606
1742766305829240800,2.88024072265625,11.905488967895508,0.07178468257188797,-0.9415757060050964
1742766305831638000,2.882637939453125,9.820143699645996,-0.22073788940906525,-0.08554340898990631
1742766305834022000,2.88502197265625,7.554141044616699,-0.29312077164649963,0.009571290574967861
1742766305836432400,2.887432373046875,6.784250259399414,0.7800601720809937,-0.511465847492218
1742766305838829800,2.889829833984375,8.089534759521484,1.0534402132034302,-0.15613168478012085
1742766305841227000,2.89222705078125,10.25204849243164,0.5288137793540955,0.07417750358581543
1742766305843624200,2.894624267578125,11.491530418395996,0.6011967062950134,-1.2041879892349243
1742766305846021600,2.897021728515625,10.856236457824707,0.4456632137298584,-2.0512471199035645
1742766305848418800,2.899418701171875,8.764310836791992,-0.15074782073497772,-1.201795220375061
1742766305850816000,2.90181591796875,7.527820110321045,-0.08434699475765228,0.005982056725770235
1742766305853213200,2.904213134765625,8.895318031311035,0.5760720372200012,0.16809579730033875
1742766305855597300,2.906597412109375,11.565110206604004,0.9355936646461487,-0.4737788736820221
1742766305858007800,2.9090078125,13.058829307556152,-0.2147558331489563,-1.0121639966964722
1742766305860405000,2.911405029296875,12.029317855834961,-1.0630114078521729,-0.8428717851638794
1742766305862802400,2.913802490234375,9.747760772705078,-0.6221339106559753,-0.8356932997703552
1742766305865199600,2.91619970703125,7.698906898498535,-0.4181457459926605,-1.357926845550537
1742766305867596800,2.9185966796875,7.18086051940918,-0.4001995921134949,-1.2185449600219727
1742766305869994000,2.920993896484375,9.283554077148438,0.14895321428775787,-0.16809579730033875
1742766305872391400,2.923391357421875,12.022139549255371,0.0323031060397625,0.6580262184143066
1742766305874788600,2.92578857421875,13.15514087677002,-0.17766708135604858,0.44446679949760437
1742766305877172500,2.92817236328125,12.014362335205078,0.2626122832298279,0.1782652884721756
1742766305879583200,2.930583251953125,9.10229778289795,0.08673982322216034,0.48394837975502014
1742766305881980400,2.93298046875,6.833901405334473,-0.19621145725250244,-0.035892341285943985
1742766305884364300,2.9353642578125,6.700501441955566,0.5359922647476196,-1.4315061569213867
1742766305886774800,2.93777490234375,8.294719696044922,0.638883650302887,-1.4015958309173584
1742766305889172200,2.940172119140625,10.620543479919434,-0.25004997849464417,-0.08315058797597885
1742766305891556000,2.94255615234375,11.088339805603027,-0.03469592705368996,0.5647061467170715
1742766305893966600,2.944966552734375,9.66819953918457,0.49710890650749207,0.45104706287384033
1742766305896364000,2.947364013671875,8.653642654418945,0.3601198196411133,0.0005982056609354913
1742766305898761200,2.94976123046875,8.397610664367676,0.4546363055706024,-0.5216353535652161
1742766305901158400,2.952158447265625,8.882756233215332,0.7956135272979736,-1.0546365976333618
1742766305903555600,2.9545556640625,11.009376525878906,0.8805587291717529,-1.158724308013916
1742766305905939500,2.956939453125,12.693923950195312,0.6777670383453369,-0.6215356588363647
1742766305908350200,2.95935009765625,12.171690940856934,-0.11485548317432404,0.028115665540099144
1742766305910747400,2.961747314453125,10.398609161376953,-0.5617151260375977,-0.0933200865983963
1742766305913131300,2.96413134765625,8.654241561889648,-0.5635097622871399,-0.6137589812278748
1742766305915542000,2.9665419921875,7.700103282928467,-0.09391828626394272,-0.5946164131164551
1742766305917939200,2.968939208984375,7.216753005981445,-0.17766708135604858,-0.03170489892363548
1742766305920336400,2.97133642578125,8.185846328735352,-0.6705885529518127,-0.16031911969184875
1742766305922733800,2.97373388671875,9.787242889404297,-0.30628129839897156,-1.1240284442901611
1742766305925131000,2.976131103515625,9.984052658081055,0.019740786403417587,-1.275374412536621
1742766305927528200,2.978528076171875,10.253843307495117,-0.4660021960735321,-0.4546363055706024
1742766305929925400,2.98092529296875,9.820143699645996,-0.24945175647735596,-0.03349951654672623
1742766305932322800,2.98332275390625,9.383454322814941,0.6107679605484009,-0.07597211748361588
1742766305934720000,2.985719970703125,10.6025972366333,0.47557350993156433,0.11126625537872314
1742766305937117200,2.9881171875,12.285947799682617,-0.031106693670153618,0.6430711150169373
1742766305939514400,2.990514404296875,12.067004203796387,-0.15553347766399384,0.3236292600631714
1742766305941898500,2.9928984375,8.914461135864258,-0.2799602448940277,-0.584446907043457
1742766305944309000,2.99530908203125,6.0472612380981445,-0.17766708135604858,-0.6484549641609192
1742766305946706200,2.9977060546875,6.27996301651001,0.5198407173156738,-0.031106693670153618
1742766305949103600,3.000103515625,9.527023315429688,0.22971096634864807,0.38344982266426086
1742766305951500800,3.002500732421875,13.262219429016113,0.07956135272979736,-0.47258245944976807
1742766305953898000,3.00489794921875,14.443077087402344,0.6819544434547424,-1.4769697189331055
1742766305956281900,3.00728173828125,11.918051719665527,0.24287149310112,-0.9170492887496948
1742766305958692600,3.009692626953125,9.247661590576172,-0.45583271980285645,0.08075776696205139
1742766305961089800,3.01208984375,9.038887977600098,-0.2069791555404663,0.20159530639648438
1742766305963487000,3.014487060546875,10.397412300109863,-0.010169495828449726,-0.14297115802764893
1742766305965884200,3.01688427734375,10.412965774536133,-0.12681959569454193,-0.46719861030578613
1742766305968281600,3.019281494140625,9.330811500549316,0.1902294009923935,-0.7447660565376282
1742766305970665500,3.02166552734375,7.698906898498535,0.005982056725770235,-0.6705885529518127
1742766305973076000,3.024075927734375,7.219145774841309,-0.3684946894645691,-0.8093722462654114
1742766305975473400,3.026473388671875,7.679165840148926,-0.39481574296951294,-1.1958130598068237
1742766305977870600,3.02887060546875,8.168498039245605,-0.0011964113218709826,-0.9906286001205444
1742766305980267800,3.031267822265625,9.40917682647705,0.4737788736820221,-0.24287149310112
1742766305982665000,3.0336650390625,10.808978080749512,0.45523449778556824,-0.15613168478012085
1742766305985048800,3.036048828125,10.874780654907227,0.12083754688501358,-0.5383850932121277
1742766305987459600,3.03845947265625,9.88415241241455,0.46899324655532837,-0.19202402234077454
1742766305989856800,3.040856689453125,8.514859199523926,-0.05742774158716202,0.5078766345977783
1742766305992240600,3.04324072265625,7.265805721282959,-1.057627558708191,0.2105683982372284
1742766305994651400,3.0456513671875,7.929814338684082,-0.09152546525001526,-0.6191428303718567
1742766305997048600,3.048048583984375,10.332208633422852,0.6323033571243286,-0.39182472229003906
1742766305999432400,3.050432373046875,12.239886283874512,-0.6011967062950134,0.4301098585128784
1742766306001843200,3.05284326171875,11.696117401123047,-0.04127619042992592,0.4055834412574768
1742766306004240400,3.055240478515625,8.982656478881836,0.9158528447151184,-0.17288143932819366
1742766306006624300,3.057624267578125,7.953144073486328,0.3798605799674988,-0.8165507316589355
1742766306009034800,3.06003466796875,9.257232666015625,0.3284149169921875,-0.9104689955711365
1742766306011432200,3.06243212890625,10.327422142028809,0.20039889216423035,-0.5318048596382141
1742766306013829400,3.064829345703125,10.7228364944458,-0.36729827523231506,-0.21236300468444824
1742766306016226600,3.0672265625,10.99143123626709,0.029312077909708023,-0.10169496387243271
1742766306018623700,3.069623779296875,10.406984329223633,0.3930211067199707,-0.026919255033135414
1742766306021021200,3.072021240234375,8.741579055786133,0.22432711720466614,-0.20937198400497437
1742766306023418400,3.07441845703125,6.7208404541015625,0.016749758273363113,-1.0773683786392212
1742766306025815600,3.076815673828125,6.978068828582764,0.11306086927652359,-1.730010747909546
1742766306028213000,3.079212890625,9.351150512695312,0.4785645306110382,-1.404586911201477
