time,seconds_elapsed,z,y,x
1742766302986670300,0.03767041015625,9.806795120239258,0.21466894447803497,-0.1296214908361435
1742766302991464400,0.04246435546875,9.806730270385742,0.2164156436920166,-0.13151849806308746
1742766302996881000,0.047880859375,9.806708335876465,0.21723906695842743,-0.13182276487350464
1742766303001675300,0.05267529296875,9.806686401367188,0.21805806457996368,-0.1321253776550293
1742766303006470000,0.057469970703125,9.806499481201172,0.22384153306484222,-0.13626575469970703
1742766303011264300,0.06226416015625,9.806500434875488,0.22377920150756836,-0.1363058239221573
1742766303016059000,0.067058837890625,9.806607246398926,0.22262808680534363,-0.1303815096616745
1742766303020853500,0.071853515625,9.806676864624023,0.22205914556980133,-0.12601014971733093
1742766303025647900,0.07664794921875,9.806550979614258,0.22424551844596863,-0.13189595937728882
1742766303030442500,0.0814423828125,9.806554794311523,0.22159230709075928,-0.13599807024002075
1742766303035223600,0.0862236328125,9.806684494018555,0.21776288747787476,-0.13274969160556793
1742766303040031500,0.091031494140625,9.80665111541748,0.2203502506017685,-0.13093535602092743
1742766303044825900,0.095825927734375,9.806524276733398,0.2236691266298294,-0.13475893437862396
1742766303049607200,0.100607177734375,9.806612014770508,0.2211759239435196,-0.1325102150440216
1742766303054414800,0.105414794921875,9.806634902954102,0.22022509574890137,-0.13231314718723297
1742766303059209500,0.11020947265625,9.806612968444824,0.2216552346944809,-0.13158343732357025
1742766303064003800,0.11500390625,9.806503295898438,0.22452162206172943,-0.13487789034843445
1742766303068798500,0.119798583984375,9.806554794311523,0.22337225079536438,-0.1330193430185318
1742766303073593000,0.124593017578125,9.806562423706055,0.2234216034412384,-0.13233105838298798
1742766303078387500,0.129387451171875,9.806570053100586,0.22184589505195618,-0.13445734977722168
1742766303083182000,0.13418212890625,9.806546211242676,0.22166167199611664,-0.136520117521286
1742766303087976400,0.1389765625,9.806615829467773,0.22062286734580994,-0.1331333965063095
1742766303092771000,0.14377099609375,9.806695938110352,0.21832013130187988,-0.13098086416721344
1742766303097565700,0.148565673828125,9.806644439697266,0.21999016404151917,-0.1320386677980423
1742766303102360000,0.153360107421875,9.806653022766113,0.21925383806228638,-0.1325942575931549
1742766303107154700,0.15815478515625,9.8066987991333,0.21745319664478302,-0.1322074979543686
1742766303111949000,0.162948974609375,9.806729316711426,0.21802665293216705,-0.12900379300117493
1742766303116743700,0.16774365234375,9.80669116973877,0.2181359976530075,-0.13165175914764404
1742766303121538000,0.1725380859375,9.806703567504883,0.21707665920257568,-0.13246163725852966
1742766303126332700,0.177332763671875,9.806724548339844,0.2157556116580963,-0.13309001922607422
1742766303131127000,0.182126953125,9.806729316711426,0.2148907333612442,-0.13411270081996918
1742766303135921700,0.186921630859375,9.806726455688477,0.21464915573596954,-0.13472390174865723
1742766303140716000,0.191716064453125,9.806780815124512,0.21255868673324585,-0.13408471643924713
1742766303145510700,0.1965107421875,9.806848526000977,0.20948238670825958,-0.1339455544948578
1742766303150305300,0.20130517578125,9.806866645812988,0.2089863270521164,-0.1334155797958374
1742766303155099600,0.206099609375,9.806915283203125,0.20760536193847656,-0.13200992345809937
1742766303159894300,0.210894287109375,9.806904792785645,0.20724309980869293,-0.13334141671657562
1742766303164675300,0.21567529296875,9.806870460510254,0.20879408717155457,-0.13345840573310852
1742766303169483300,0.220483154296875,9.806849479675293,0.20914606750011444,-0.134349524974823
1742766303174277600,0.225277587890625,9.806856155395508,0.2089855968952179,-0.1341584324836731
1742766303179072300,0.230072265625,9.806893348693848,0.20819427073001862,-0.13265453279018402
1742766303183866600,0.23486669921875,9.806809425354004,0.21055397391319275,-0.13512368500232697
1742766303188661200,0.2396611328125,9.806744575500488,0.21025776863098145,-0.14025869965553284
1742766303193442300,0.2444423828125,9.806815147399902,0.20709313452243805,-0.14001800119876862
1742766303198250200,0.249250244140625,9.80687427520752,0.20533235371112823,-0.13842684030532837
1742766303203044900,0.254044921875,9.806851387023926,0.20574799180030823,-0.13939574360847473
1742766303207839200,0.258839111328125,9.806878089904785,0.20548443496227264,-0.13793447613716125
1742766303212633900,0.2636337890625,9.806877136230469,0.2053772658109665,-0.13815182447433472
1742766303217428200,0.26842822265625,9.806917190551758,0.20366507768630981,-0.13786441087722778
1742766303222222800,0.273222900390625,9.806961059570312,0.20315119624137878,-0.13547711074352264
1742766303227017200,0.278017333984375,9.806859016418457,0.2057148516178131,-0.13894078135490417
1742766303231811800,0.282811767578125,9.80682373046875,0.20559746026992798,-0.1416032314300537
1742766303236593000,0.287593017578125,9.806867599487305,0.2052561342716217,-0.13905850052833557
1742766303241400800,0.29240087890625,9.806856155395508,0.20508866012096405,-0.14009834825992584
1742766303246195500,0.297195556640625,9.806831359863281,0.2048477679491043,-0.14214803278446198
1742766303250976500,0.3019765625,9.806954383850098,0.2004675716161728,-0.13991987705230713
1742766303255784400,0.306784423828125,9.807049751281738,0.19769933819770813,-0.1371636688709259
1742766303260578800,0.311578857421875,9.80699634552002,0.19991706311702728,-0.1376980096101761
1742766303265373400,0.31637353515625,9.806962966918945,0.19931447505950928,-0.14086195826530457
1742766303270167800,0.321167724609375,9.806997299194336,0.1984734982252121,-0.13968899846076965
1742766303274962400,0.32596240234375,9.807024002075195,0.19784995913505554,-0.13871444761753082
1742766303279756800,0.3307568359375,9.806951522827148,0.19936984777450562,-0.14163969457149506
1742766303284551400,0.335551513671875,9.806936264038086,0.19939710199832916,-0.1426541805267334
1742766303289346000,0.340345947265625,9.807029724121094,0.19830799102783203,-0.13768570125102997
1742766303294127000,0.345127197265625,9.807065963745117,0.19623033702373505,-0.13807983696460724
1742766303298935000,0.34993505859375,9.807034492492676,0.1954403519630432,-0.14135967195034027
1742766303303729400,0.3547294921875,9.807053565979004,0.19419005513191223,-0.14175650477409363
1742766303308510700,0.3595107421875,9.807123184204102,0.1920793056488037,-0.13976681232452393
1742766303313318700,0.364318603515625,9.80712604522705,0.19264307618141174,-0.1388605237007141
1742766303318113000,0.369113037109375,9.807095527648926,0.19223186373710632,-0.14151673018932343
1742766303322907600,0.37390771484375,9.807038307189941,0.19292107224464417,-0.14451688528060913
1742766303327702000,0.378701904296875,9.80705738067627,0.19255758821964264,-0.1437332183122635
1742766303332496600,0.38349658203125,9.807086944580078,0.19202761352062225,-0.1423964500427246
1742766303337277700,0.388277587890625,9.806984901428223,0.19447657465934753,-0.1460624635219574
1742766303342085600,0.393085693359375,9.807059288024902,0.19137689471244812,-0.14516986906528473
1742766303346880000,0.3978798828125,9.807018280029297,0.19325247406959534,-0.14542336761951447
1742766303351674600,0.402674560546875,9.807068824768066,0.19108812510967255,-0.1449124813079834
1742766303356469000,0.407468994140625,9.807074546813965,0.18928082287311554,-0.14688432216644287
1742766303361263600,0.412263671875,9.807147979736328,0.18710997700691223,-0.14475923776626587
1742766303366058200,0.417058349609375,9.807109832763672,0.18813581764698029,-0.14602796733379364
1742766303370852600,0.4218525390625,9.807135581970215,0.18831060826778412,-0.14404241740703583
1742766303375647200,0.426647216796875,9.80712604522705,0.18759334087371826,-0.14557592570781708
1742766303380428300,0.43142822265625,9.80720043182373,0.18576867878437042,-0.14287376403808594
1742766303385236200,0.436236328125,9.807247161865234,0.1850675493478775,-0.14056941866874695
1742766303390030600,0.441030517578125,9.807186126708984,0.18538568913936615,-0.14433805644512177
1742766303394825200,0.4458251953125,9.807140350341797,0.1860603541135788,-0.14657166600227356
1742766303399619600,0.45061962890625,9.807206153869629,0.18467307090759277,-0.1439310908317566
1742766303404414200,0.455414306640625,9.8071870803833,0.18530578911304474,-0.14443150162696838
1742766303409208800,0.460208740234375,9.807215690612793,0.18156272172927856,-0.1471470594406128
1742766303414003200,0.465003173828125,9.807188034057617,0.1806674599647522,-0.15006351470947266
1742766303418797800,0.4697978515625,9.80731201171875,0.17956531047821045,-0.14312699437141418
1742766303423579000,0.474578857421875,9.807300567626953,0.1807166337966919,-0.1425132304430008
1742766303428386800,0.47938671875,9.80737018585205,0.17763064801692963,-0.14155560731887817
1742766303433181200,0.48418115234375,9.807391166687012,0.17631037533283234,-0.14174893498420715
1742766303437962500,0.48896240234375,9.807344436645508,0.17819860577583313,-0.14265237748622894
1742766303442770400,0.4937705078125,9.807257652282715,0.17979076504707336,-0.1465466171503067
1742766303447564800,0.498564697265625,9.80728816986084,0.17928674817085266,-0.14514432847499847
1742766303452346000,0.50334619140625,9.807336807250977,0.18064968287944794,-0.14005926251411438
1742766303457153800,0.50815380859375,9.807390213012695,0.17776457965373993,-0.14002259075641632
1742766303461948400,0.512948486328125,9.807324409484863,0.17769651114940643,-0.1446143090724945
1742766303466729500,0.5177294921875,9.807332038879395,0.1759398877620697,-0.1462106853723526
1742766303471537400,0.522537353515625,9.807377815246582,0.17530110478401184,-0.14398148655891418
1742766303476331800,0.527331787109375,9.807426452636719,0.17549027502536774,-0.14035962522029877
1742766303481113000,0.532113037109375,9.807365417480469,0.17539909482002258,-0.14462998509407043
1742766303485920800,0.536920654296875,9.807268142700195,0.1760983020067215,-0.1503181755542755
1742766303490715400,0.54171533203125,9.807342529296875,0.17367005348205566,-0.14825065433979034
1742766303495496400,0.546496337890625,9.807403564453125,0.17328979074954987,-0.14460596442222595
1742766303500304400,0.551304443359375,9.807344436645508,0.17543356120586395,-0.14601607620716095
1742766303505099000,0.55609912109375,9.807327270507812,0.17409288883209229,-0.14875976741313934
1742766303509893400,0.560893310546875,9.807327270507812,0.1748828887939453,-0.1478489190340042
1742766303514688000,0.56568798828125,9.807376861572266,0.1721198409795761,-0.14775994420051575
1742766303519482400,0.570482421875,9.80737590789795,0.17148476839065552,-0.14861294627189636
1742766303524277000,0.575277099609375,9.807424545288086,0.1699102222919464,-0.14716289937496185
1742766303529071600,0.580071533203125,9.807439804077148,0.1696998029947281,-0.14640603959560394
1742766303533866000,0.584865966796875,9.80746841430664,0.1700861155986786,-0.14400990307331085
1742766303538647000,0.58964697265625,9.807511329650879,0.16723524034023285,-0.1444375216960907
1742766303543455000,0.594455078125,9.807531356811523,0.1677922010421753,-0.14239223301410675
1742766303548249600,0.59924951171875,9.80754566192627,0.1670898050069809,-0.14224523305892944
1742766303553030700,0.60403076171875,9.807433128356934,0.1688956916332245,-0.14771871268749237
1742766303557838600,0.608838623046875,9.807409286499023,0.1694251447916031,-0.14875555038452148
1742766303562633000,0.613633056640625,9.807503700256348,0.16756369173526764,-0.14455455541610718
1742766303567427600,0.618427490234375,9.807530403137207,0.16742907464504242,-0.1429395079612732
1742766303572222200,0.62322216796875,9.807528495788574,0.16498588025569916,-0.14584296941757202
1742766303577016600,0.6280166015625,9.807482719421387,0.1646030992269516,-0.14927427470684052
1742766303581798000,0.6327978515625,9.807546615600586,0.16288278996944427,-0.1469997763633728
1742766303586605600,0.63760546875,9.807551383972168,0.16448795795440674,-0.14485383033752441
1742766303591400200,0.642400146484375,9.807570457458496,0.16416428983211517,-0.1439296007156372
1742766303596181200,0.64718115234375,9.807488441467285,0.16480013728141785,-0.14871354401111603
1742766303600989200,0.6519892578125,9.80737590789795,0.168990820646286,-0.15141968429088593
1742766303605783600,0.656783447265625,9.807430267333984,0.16664034128189087,-0.15051639080047607
1742766303610564900,0.66156494140625,9.807425498962402,0.1678125262260437,-0.14949491620063782
1742766303615372500,0.66637255859375,9.807419776916504,0.1686498522758484,-0.14891552925109863
1742766303620167200,0.671167236328125,9.807394027709961,0.16677841544151306,-0.15269611775875092
1742766303624961800,0.6759619140625,9.807353019714355,0.1676795333623886,-0.15430597960948944
1742766303629756200,0.680756103515625,9.80736255645752,0.16577209532260895,-0.15579400956630707
1742766303634550800,0.68555078125,9.807440757751465,0.16396649181842804,-0.15275251865386963
1742766303639345200,0.69034521484375,9.80750560760498,0.1646261215209961,-0.14776664972305298
1742766303644139800,0.695139892578125,9.807433128356934,0.16546066105365753,-0.1516283005475998
1742766303648934100,0.69993408203125,9.807332038879395,0.1681382805109024,-0.15516197681427002
1742766303653715500,0.704715576171875,9.80734634399414,0.16736087203025818,-0.1550997793674469
1742766303658523400,0.7095234375,9.807380676269531,0.1682988405227661,-0.15191040933132172
1742766303663317800,0.71431787109375,9.807371139526367,0.16854269802570343,-0.15219788253307343
1742766303668112400,0.7191123046875,9.807331085205078,0.1683984100818634,-0.15495575964450836
1742766303672906800,0.72390673828125,9.807269096374512,0.17077718675136566,-0.1562758833169937
1742766303677701400,0.728701416015625,9.807354927062988,0.16807347536087036,-0.15380336344242096
1742766303682495700,0.733495849609375,9.807422637939453,0.16561299562454224,-0.15214815735816956
1742766303687290400,0.738290283203125,9.807442665100098,0.16393470764160156,-0.15269358456134796
1742766303692084700,0.743084716796875,9.807401657104492,0.16559362411499023,-0.15351951122283936
1742766303696879400,0.74787939453125,9.807421684265137,0.16569934785366058,-0.15211114287376404
1742766303701673700,0.752673828125,9.807451248168945,0.16572321951389313,-0.1501658409833908
1742766303706468400,0.75746826171875,9.807487487792969,0.1649157553911209,-0.14861786365509033
1742766303711249400,0.76224951171875,9.807435035705566,0.16516262292861938,-0.15183034539222717
1742766303716057300,0.767057373046875,9.807303428649902,0.16762124001979828,-0.15747512876987457
1742766303720852000,0.77185205078125,9.807354927062988,0.16653230786323547,-0.15542496740818024
1742766303725646300,0.776646240234375,9.807445526123047,0.1661796271800995,-0.14998963475227356
1742766303730441000,0.78144091796875,9.807456970214844,0.1646116077899933,-0.15100979804992676
1742766303735235300,0.7862353515625,9.807377815246582,0.1636524498462677,-0.15709656476974487
1742766303740030000,0.791030029296875,9.807318687438965,0.1634165346622467,-0.16091814637184143
1742766303744824300,0.79582421875,9.807402610778809,0.16167856752872467,-0.15752945840358734
1742766303749619000,0.800618896484375,9.807463645935059,0.16316555440425873,-0.15214668214321136
1742766303754413600,0.80541357421875,9.80746078491211,0.16206927597522736,-0.15346591174602509
1742766303759208000,0.8102080078125,9.807332038879395,0.16257017850875854,-0.16100840270519257
1742766303764002600,0.81500244140625,9.807398796081543,0.1632593423128128,-0.1561729609966278
1742766303768783600,0.81978369140625,9.807433128356934,0.16242359578609467,-0.15482689440250397
1742766303773591600,0.824591552734375,9.807394981384277,0.1641112118959427,-0.15553294122219086
1742766303778386000,0.829385986328125,9.807398796081543,0.16235525906085968,-0.15706756711006165
1742766303783167200,0.834167236328125,9.807303428649902,0.1639128476381302,-0.1613529771566391
1742766303787975200,0.83897509765625,9.807270050048828,0.16472257673740387,-0.1625470668077469
1742766303792769500,0.84376953125,9.807308197021484,0.16213876008987427,-0.16288955509662628
1742766303797564200,0.848564208984375,9.80735969543457,0.16115021705627441,-0.1607288122177124
1742766303802358500,0.853358642578125,9.807378768920898,0.16082777082920074,-0.15986351668834686
1742766303807153200,0.858153076171875,9.807347297668457,0.16161231696605682,-0.16103990375995636
1742766303811947500,0.862947509765625,9.807307243347168,0.1616070568561554,-0.16348421573638916
1742766303816742100,0.8677421875,9.807342529296875,0.16085277497768402,-0.16208139061927795
1742766303821536500,0.87253662109375,9.807417869567871,0.16015617549419403,-0.15815488994121552
1742766303826317800,0.87731787109375,9.807318687438965,0.16129083931446075,-0.16304603219032288
1742766303831125500,0.88212548828125,9.807169914245605,0.16498009860515594,-0.16824574768543243
1742766303835920100,0.886920166015625,9.807337760925293,0.16149044036865234,-0.16169661283493042
1742766303840714800,0.89171484375,9.80734920501709,0.1601322591304779,-0.16236139833927155
1742766303845509000,0.896509033203125,9.80735969543457,0.15847241878509521,-0.16341780126094818
1742766303850303700,0.9013037109375,9.80733871459961,0.1570429503917694,-0.16598357260227203
1742766303855084800,0.906084716796875,9.807391166687012,0.15766732394695282,-0.1622771918773651
1742766303859892700,0.910892822265625,9.807411193847656,0.15796363353729248,-0.16072215139865875
1742766303864687000,0.91568701171875,9.807433128356934,0.1558818817138672,-0.16143526136875153
1742766303869481700,0.920481689453125,9.807366371154785,0.15751950442790985,-0.1638936549425125
1742766303874276000,0.925276123046875,9.80741024017334,0.15622131526470184,-0.16247259080410004
1742766303879070700,0.93007080078125,9.807400703430176,0.1583331823348999,-0.161036416888237
1742766303883851800,0.934851806640625,9.807377815246582,0.15765778720378876,-0.16309571266174316
1742766303888659700,0.93965966796875,9.807391166687012,0.15789270401000977,-0.1620703488588333
1742766303893454300,0.944454345703125,9.807482719421387,0.15548744797706604,-0.15878169238567352
1742766303898235400,0.9492353515625,9.807458877563477,0.15431350469589233,-0.16137342154979706
1742766303903043300,0.954043212890625,9.807419776916504,0.15516328811645508,-0.1629774570465088
1742766303907837700,0.958837646484375,9.807516098022461,0.1506187915802002,-0.16138890385627747
1742766303912619000,0.963618896484375,9.8075590133667,0.15114817023277283,-0.15830062329769135
1742766303917427000,0.968427001953125,9.80756950378418,0.15098489820957184,-0.1577693670988083
1742766303922221300,0.97322119140625,9.807489395141602,0.1510837823152542,-0.16254989802837372
1742766303927002600,0.978002685546875,9.807426452636719,0.15417270362377167,-0.16345040500164032
1742766303931810300,0.982810302734375,9.807485580444336,0.15244653820991516,-0.1615377962589264
1742766303936605000,0.98760498046875,9.807476997375488,0.1533915251493454,-0.16116976737976074
1742766303941386000,0.992385986328125,9.807489395141602,0.15165944397449493,-0.16203954815864563
1742766303946194000,0.99719384765625,9.807450294494629,0.15361288189888,-0.1625748723745346
1742766303950988300,1.00198828125,9.807479858398438,0.15210175514221191,-0.1622396856546402
1742766303955783000,1.006782958984375,9.80749225616455,0.15074816346168518,-0.16272033751010895
1742766303960577300,1.011577392578125,9.807577133178711,0.14831870794296265,-0.1598459929227829
1742766303965372000,1.016371826171875,9.80759048461914,0.1474829763174057,-0.15974482893943787
1742766303970153000,1.021153076171875,9.807548522949219,0.1492491215467453,-0.16073858737945557
1742766303974961000,1.0259609375,9.807598114013672,0.14731508493423462,-0.15945397317409515
1742766303979755500,1.030755615234375,9.807563781738281,0.14827439188957214,-0.16067321598529816
1742766303984550000,1.0355498046875,9.807562828063965,0.14940644800662994,-0.15966513752937317
1742766303989344500,1.040344482421875,9.807564735412598,0.14816266298294067,-0.1606832891702652
1742766303994139000,1.045138916015625,9.807516098022461,0.15085981786251068,-0.16117489337921143
1742766303998933500,1.04993359375,9.807608604431152,0.14926576614379883,-0.15700112283229828
1742766304003728000,1.054727783203125,9.807600021362305,0.14829683303833008,-0.1584758162498474
1742766304008522500,1.0595224609375,9.807554244995117,0.14891821146011353,-0.16066119074821472
1742766304013303600,1.064303466796875,9.807602882385254,0.1457243114709854,-0.1606520712375641
1742766304018111500,1.069111572265625,9.807641983032227,0.14571984112262726,-0.15825743973255157
1742766304022906000,1.073906005859375,9.80766773223877,0.1469079852104187,-0.1554691046476364
1742766304027700500,1.078700439453125,9.807639122009277,0.14619611203670502,-0.15795986354351044
1742766304032495000,1.0834951171875,9.807575225830078,0.14674240350723267,-0.1613781452178955
1742766304037289500,1.08828955078125,9.807600021362305,0.14710478484630585,-0.1595899760723114
1742766304042084000,1.093083984375,9.807611465454102,0.1483171582221985,-0.15770649909973145
1742766304046878700,1.097878662109375,9.807621955871582,0.14875179529190063,-0.15664196014404297
1742766304051673000,1.102673095703125,9.807655334472656,0.14736492931842804,-0.15588650107383728
1742766304056467700,1.1074677734375,9.807628631591797,0.14759618043899536,-0.15734295547008514
1742766304061262000,1.112261962890625,9.807568550109863,0.14868862926959991,-0.15998002886772156
1742766304066056700,1.117056640625,9.807596206665039,0.14758819341659546,-0.15934444963932037
1742766304070837800,1.121837646484375,9.807703971862793,0.14638368785381317,-0.15373127162456512
1742766304075645700,1.126645751953125,9.807726860046387,0.14522969722747803,-0.15333278477191925
1742766304080440000,1.131440185546875,9.807683944702148,0.14614006876945496,-0.15519481897354126
1742766304085234700,1.136234619140625,9.807648658752441,0.1477886289358139,-0.15587101876735687
1742766304090029000,1.141029052734375,9.807716369628906,0.14727403223514557,-0.1520746946334839
1742766304094823700,1.14582373046875,9.807743072509766,0.14736473560333252,-0.15024323761463165
1742766304099618300,1.150618408203125,9.807703971862793,0.14647544920444489,-0.15358836948871613
1742766304104412700,1.15541259765625,9.807652473449707,0.14753825962543488,-0.1558150053024292
1742766304109207300,1.160207275390625,9.807686805725098,0.14814653992652893,-0.15309955179691315
1742766304114001700,1.165001708984375,9.807668685913086,0.1476358026266098,-0.15475688874721527
1742766304118796300,1.16979638671875,9.80769157409668,0.14496594667434692,-0.15580111742019653
1742766304123590700,1.174590576171875,9.807701110839844,0.14485584199428558,-0.1552828848361969
1742766304128372000,1.1793720703125,9.807754516601562,0.14432859420776367,-0.15240900218486786
1742766304133180000,1.184179931640625,9.807782173156738,0.14497999846935272,-0.15000177919864655
1742766304137974300,1.188974365234375,9.807788848876953,0.14427338540554047,-0.1502579301595688
1742766304142755300,1.19375537109375,9.807727813720703,0.14626151323318481,-0.1522531658411026
1742766304147563300,1.198563232421875,9.807706832885742,0.14855192601680756,-0.15137219429016113
1742766304152358000,1.20335791015625,9.80772876739502,0.1481122374534607,-0.15042845904827118
1742766304157152300,1.20815234375,9.807723045349121,0.1483011394739151,-0.15063662827014923
1742766304161947000,1.21294677734375,9.80777359008789,0.14763480424880981,-0.14792750775814056
1742766304166741200,1.2177412109375,9.807708740234375,0.14825500547885895,-0.15154342353343964
1742766304171536000,1.222535888671875,9.807684898376465,0.14848196506500244,-0.15287886559963226
1742766304176330200,1.227330322265625,9.80766773223877,0.14719714224338531,-0.15525008738040924
1742766304181124900,1.232124755859375,9.807755470275879,0.1433519423007965,-0.15330655872821808
1742766304185919500,1.23691943359375,9.807778358459473,0.14441373944282532,-0.15077251195907593
1742766304190713900,1.2417138671875,9.807743072509766,0.14530028402805328,-0.15224695205688477
1742766304195508500,1.246508544921875,9.807683944702148,0.14699997007846832,-0.15435893833637238
1742766304200302800,1.251302734375,9.807716369628906,0.1479789763689041,-0.1513957381248474
1742766304205097500,1.256097412109375,9.80780029296875,0.14527104794979095,-0.1485539823770523
1742766304209891800,1.260891845703125,9.80772590637207,0.14934757351875305,-0.14939309656620026
1742766304214686500,1.2656865234375,9.807738304138184,0.14950355887413025,-0.1484329104423523
1742766304219480800,1.270480712890625,9.807726860046387,0.15021055936813354,-0.1484602838754654
1742766304224275500,1.275275390625,9.807750701904297,0.14781993627548218,-0.14930474758148193
1742766304229069800,1.28006982421875,9.807758331298828,0.1464119404554367,-0.15014910697937012
1742766304233864400,1.284864501953125,9.807782173156738,0.14665521681308746,-0.1483236700296402
1742766304238659000,1.2896591796875,9.807818412780762,0.14493179321289062,-0.1476002186536789
1742766304243453400,1.294453369140625,9.807788848876953,0.1448005884885788,-0.1497626155614853
1742766304248248000,1.299248046875,9.807771682739258,0.1441776305437088,-0.15146489441394806
1742766304253042400,1.30404248046875,9.807764053344727,0.14588002860546112,-0.1503271758556366
1742766304257823700,1.30882373046875,9.807781219482422,0.14870256185531616,-0.14641617238521576
1742766304262631400,1.31363134765625,9.807709693908691,0.1500113308429718,-0.14980481564998627
1742766304267426000,1.318426025390625,9.807730674743652,0.14844778180122375,-0.14996321499347687
1742766304272207000,1.32320703125,9.8078031539917,0.1474306732416153,-0.14617919921875
1742766304277015000,1.32801513671875,9.807740211486816,0.1489710658788681,-0.148832306265831
1742766304281809700,1.3328095703125,9.807706832885742,0.15015700459480286,-0.14978967607021332
1742766304286604000,1.33760400390625,9.807761192321777,0.14701014757156372,-0.1493353694677353
1742766304291398700,1.342398681640625,9.807826042175293,0.1446022093296051,-0.14749528467655182
1742766304296193000,1.347193115234375,9.807766914367676,0.14865738153457642,-0.14735719561576843
1742766304300987600,1.351987548828125,9.807753562927246,0.1495652198791504,-0.14734911918640137
1742766304305782000,1.356781982421875,9.807740211486816,0.149827241897583,-0.14798805117607117
1742766304310576600,1.36157666015625,9.807744979858398,0.14888310432434082,-0.14864516258239746
1742766304315357700,1.366357666015625,9.80772876739502,0.14832045137882233,-0.15021301805973053
1742766304320165600,1.37116552734375,9.80767822265625,0.15127183496952057,-0.15053114295005798
1742766304324960300,1.375960205078125,9.807737350463867,0.15070641040802002,-0.14728261530399323
1742766304329741300,1.3807412109375,9.807747840881348,0.1481734812259674,-0.14913474023342133
1742766304334549200,1.38554931640625,9.80777359008789,0.14676745235919952,-0.14882344007492065
1742766304339343600,1.390343505859375,9.807753562927246,0.14767713844776154,-0.14927081763744354
1742766304344138200,1.39513818359375,9.807838439941406,0.1446509063243866,-0.1466049700975418
1742766304348932600,1.3999326171875,9.807838439941406,0.1446927785873413,-0.14653053879737854
1742766304353727200,1.404727294921875,9.807832717895508,0.14441506564617157,-0.14723527431488037
1742766304358521600,1.409521484375,9.807820320129395,0.14493043720722198,-0.14751222729682922
1742766304363316200,1.414316162109375,9.807838439941406,0.14518344402313232,-0.14604532718658447
1742766304368110800,1.41911083984375,9.807844161987305,0.1453039050102234,-0.14556950330734253
1742766304372905200,1.4239052734375,9.807894706726074,0.14369872212409973,-0.14379258453845978
1742766304377699800,1.428699951171875,9.807944297790527,0.14188775420188904,-0.14210590720176697
1742766304382494200,1.433494140625,9.807851791381836,0.14384637773036957,-0.14647534489631653
1742766304387288800,1.438288818359375,9.807857513427734,0.14181920886039734,-0.14808636903762817
1742766304392083200,1.443083251953125,9.807915687561035,0.1399487406015396,-0.1460217535495758
1742766304396877800,1.4478779296875,9.80789566040039,0.1399836242198944,-0.14732861518859863
1742766304401672400,1.45267236328125,9.807909965515137,0.13877440989017487,-0.1474730670452118
1742766304406466800,1.457466796875,9.807914733886719,0.1380869448184967,-0.1478339433670044
1742766304411261400,1.462261474609375,9.807886123657227,0.13898079097270966,-0.14886468648910522
1742766304416055800,1.467055908203125,9.807880401611328,0.139003187417984,-0.14921924471855164
1742766304420850400,1.471850341796875,9.80790901184082,0.13848544657230377,-0.14781454205513
1742766304425644800,1.476644775390625,9.807877540588379,0.13909974694252014,-0.1493327021598816
1742766304430439400,1.481439453125,9.80788803100586,0.13919495046138763,-0.14856263995170593
1742766304435233800,1.48623388671875,9.807877540588379,0.13962775468826294,-0.14887291193008423
1742766304440028400,1.4910283203125,9.80789852142334,0.13794727623462677,-0.14903627336025238
1742766304444809500,1.4958095703125,9.807910919189453,0.13648191094398499,-0.14956745505332947
1742766304449617400,1.500617431640625,9.807854652404785,0.13763940334320068,-0.15213677287101746
1742766304454412000,1.505412109375,9.807812690734863,0.13782013952732086,-0.15466263890266418
1742766304459193000,1.510193115234375,9.807961463928223,0.134100541472435,-0.1483733355998993
1742766304464001000,1.5150009765625,9.807998657226562,0.13336850702762604,-0.14659370481967926
1742766304468795400,1.51979541015625,9.80789852142334,0.13659074902534485,-0.15023013949394226
1742766304473576700,1.52457666015625,9.807845115661621,0.13846063613891602,-0.1520307958126068
1742766304478384400,1.52938427734375,9.807910919189453,0.13630418479442596,-0.14970043301582336
1742766304483179000,1.534178955078125,9.807942390441895,0.1358114778995514,-0.14810782670974731
1742766304487960000,1.5389599609375,9.807915687561035,0.13634248077869415,-0.14939028024673462
1742766304492768000,1.54376806640625,9.807788848876953,0.13807836174964905,-0.15601015090942383
1742766304497562600,1.548562744140625,9.807818412780762,0.13476988673210144,-0.1569889336824417
1742766304502343700,1.55334375,9.80790901184082,0.13254137337207794,-0.15311895310878754
1742766304507151600,1.558151611328125,9.807917594909668,0.13194704055786133,-0.1531645804643631
1742766304511946000,1.562946044921875,9.807856559753418,0.13341622054576874,-0.15575817227363586
1742766304516727300,1.567727294921875,9.807880401611328,0.13214904069900513,-0.15531660616397858
1742766304521535000,1.572534912109375,9.807920455932617,0.1311531811952591,-0.15367919206619263
1742766304526329600,1.57732958984375,9.807926177978516,0.13150008022785187,-0.15295147895812988
1742766304531110700,1.582110595703125,9.807854652404785,0.13404256105422974,-0.15534573793411255
1742766304535918600,1.586918701171875,9.807781219482422,0.13467001914978027,-0.15940925478935242
1742766304540713200,1.591713134765625,9.807843208312988,0.1342100203037262,-0.1558975875377655
1742766304545507600,1.596507568359375,9.807910919189453,0.13238169252872467,-0.1531795859336853
1742766304550302200,1.60130224609375,9.807855606079102,0.132775217294693,-0.15634068846702576
1742766304555096600,1.6060966796875,9.807740211486816,0.13320094347000122,-0.1630975604057312
1742766304559891200,1.61089111328125,9.807790756225586,0.13256895542144775,-0.16053561866283417
1742766304564685600,1.615685546875,9.807887077331543,0.13100746273994446,-0.15588165819644928
1742766304569480200,1.620480224609375,9.80785846710205,0.13225343823432922,-0.15663370490074158
1742766304574261200,1.62526123046875,9.807723045349121,0.1336940973997116,-0.16368725895881653
1742766304579069200,1.630069091796875,9.807781219482422,0.13318483531475067,-0.16063831746578217
1742766304583863800,1.63486376953125,9.807823181152344,0.1333795189857483,-0.15790671110153198
1742766304588658200,1.639658203125,9.807757377624512,0.13480664789676666,-0.16071133315563202
1742766304593452800,1.644452880859375,9.807729721069336,0.13449770212173462,-0.1626366525888443
1742766304598247200,1.6492470703125,9.807731628417969,0.13472601771354675,-0.16233448684215546
1742766304603028500,1.654028564453125,9.807724952697754,0.13429711759090424,-0.16308462619781494
1742766304607836200,1.658836181640625,9.807738304138184,0.1332731693983078,-0.1631457358598709
1742766304612630800,1.663630859375,9.807730674743652,0.13279934227466583,-0.1639547497034073
1742766304617425200,1.668425048828125,9.80772876739502,0.13142700493335724,-0.16520309448242188
1742766304622219800,1.6732197265625,9.807744979858398,0.13121314346790314,-0.16439718008041382
1742766304627014100,1.67801416015625,9.80776596069336,0.1314426213502884,-0.16293860971927643
1742766304631808800,1.682808837890625,9.807740211486816,0.13168813288211823,-0.1643090397119522
1742766304636603400,1.687603271484375,9.807679176330566,0.132178395986557,-0.16753962635993958
1742766304641397800,1.692397705078125,9.807719230651855,0.12991100549697876,-0.16696573793888092
1742766304646192400,1.6971923828125,9.807729721069336,0.130266472697258,-0.16608650982379913
1742766304650986800,1.70198681640625,9.807722091674805,0.13240115344524384,-0.16485263407230377
1742766304655781400,1.706781494140625,9.807720184326172,0.13013602793216705,-0.1667497754096985
1742766304660575700,1.71157568359375,9.807732582092285,0.12827230989933014,-0.16747871041297913
1742766304665370400,1.716370361328125,9.807709693908691,0.12779788672924042,-0.169152170419693
1742766304670164700,1.721164794921875,9.807726860046387,0.12652045488357544,-0.1691007763147354
1742766304674959400,1.72595947265625,9.807733535766602,0.12656983733177185,-0.16868069767951965
1742766304679754000,1.73075390625,9.807768821716309,0.12520825862884521,-0.16765327751636505
1742766304684548400,1.73554833984375,9.80774974822998,0.12515662610530853,-0.1687832623720169
1742766304689343000,1.740343017578125,9.807755470275879,0.1254187375307083,-0.16826169192790985
1742766304694137300,1.745137451171875,9.807761192321777,0.1252339780330658,-0.1680448055267334
1742766304698932000,1.749931884765625,9.807744979858398,0.1252533346414566,-0.16896308958530426
1742766304703726300,1.754726318359375,9.80772876739502,0.12622328102588654,-0.16919545829296112
1742766304708521000,1.75952099609375,9.80768871307373,0.12913204729557037,-0.16934674978256226
1742766304713315600,1.764315673828125,9.807683944702148,0.12773798406124115,-0.1706668883562088
1742766304718110000,1.76910986328125,9.807690620422363,0.1250801384449005,-0.17227761447429657
1742766304722904600,1.773904541015625,9.807669639587402,0.1238713264465332,-0.1743001490831375
1742766304727699000,1.778698974609375,9.807629585266113,0.12521673738956451,-0.17556069791316986
1742766304732493600,1.78349365234375,9.8076810836792,0.12446670979261398,-0.17323680222034454
1742766304737288000,1.788287841796875,9.807707786560059,0.12393546849489212,-0.17208853363990784
1742766304742082600,1.79308251953125,9.80766773223877,0.12473754584789276,-0.17379261553287506
1742766304746877000,1.797876953125,9.807632446289062,0.12585894763469696,-0.17496474087238312
1742766304751671600,1.802671630859375,9.807622909545898,0.125758096575737,-0.17557457089424133
1742766304756466000,1.8074658203125,9.80765151977539,0.1255747526884079,-0.17410267889499664
1742766304761260500,1.812260498046875,9.807641983032227,0.12587952613830566,-0.17446720600128174
1742766304766055200,1.81705517578125,9.807588577270508,0.12639690935611725,-0.17697960138320923
1742766304770849500,1.821849609375,9.807599067687988,0.12486851215362549,-0.17751924693584442
1742766304775644200,1.82664404296875,9.807637214660645,0.12265125662088394,-0.17697598040103912
1742766304780438500,1.8314384765625,9.807661056518555,0.12224958837032318,-0.17589916288852692
1742766304785233200,1.836233154296875,9.807683944702148,0.12256480008363724,-0.17445462942123413
1742766304790014200,1.84101416015625,9.807652473449707,0.12218362092971802,-0.17646709084510803
1742766304794822100,1.845822265625,9.807680130004883,0.120124451816082,-0.17630994319915771
1742766304799616500,1.850616455078125,9.807724952697754,0.12045642733573914,-0.17354679107666016
1742766304804411100,1.8554111328125,9.807635307312012,0.12259718775749207,-0.17712192237377167
1742766304809205500,1.86020556640625,9.807572364807129,0.12360105663537979,-0.17989124357700348
1742766304814000000,1.865000244140625,9.807661056518555,0.12265710532665253,-0.17560984194278717
1742766304818794800,1.869794677734375,9.807658195495605,0.12317255139350891,-0.17542198300361633
1742766304823589000,1.874589111328125,9.80760669708252,0.12469516694545746,-0.17723603546619415
1742766304828383700,1.8793837890625,9.807605743408203,0.12304004281759262,-0.17840677499771118
1742766304833178000,1.88417822265625,9.807631492614746,0.12195342779159546,-0.17778611183166504
1742766304837972700,1.88897265625,9.8076171875,0.12309467792510986,-0.177789568901062
1742766304842767400,1.893767333984375,9.807587623596191,0.12415158003568649,-0.1786835938692093
1742766304847548400,1.89854833984375,9.80753231048584,0.1257772147655487,-0.18054558336734772
1742766304852356400,1.9033564453125,9.807567596435547,0.12515340745449066,-0.17905133962631226
1742766304857150700,1.908150634765625,9.807538986206055,0.12589682638645172,-0.18007062375545502
1742766304861945300,1.9129453125,9.807432174682617,0.12774257361888885,-0.18455782532691956
1742766304866739700,1.91773974609375,9.807398796081543,0.1282597780227661,-0.18597978353500366
1742766304871534300,1.922534423828125,9.807450294494629,0.1273658722639084,-0.18386204540729523
1742766304876315400,1.9273154296875,9.807371139526367,0.12894318997859955,-0.18697962164878845
1742766304881123300,1.932123291015625,9.807345390319824,0.1272011697292328,-0.1895107477903366
1742766304885917700,1.936917724609375,9.807363510131836,0.12546221911907196,-0.1896999478340149
1742766304890712300,1.94171240234375,9.807366371154785,0.1261279135942459,-0.18909044563770294
1742766304895507000,1.9465068359375,9.80736255645752,0.12664794921875,-0.18895792961120605
1742766304900301300,1.95130126953125,9.807333946228027,0.1277824491262436,-0.18967485427856445
1742766304905096000,1.956095947265625,9.807363510131836,0.12716253101825714,-0.18856008350849152
1742766304909890300,1.960890380859375,9.807355880737305,0.12811806797981262,-0.18834660947322845
1742766304914685000,1.965684814453125,9.807339668273926,0.12702788412570953,-0.18991650640964508
1742766304919479300,1.970479248046875,9.807363510131836,0.12738673388957977,-0.18839775025844574
1742766304924274000,1.97527392578125,9.80739688873291,0.1281755566596985,-0.1861363798379898
1742766304929068300,1.980068359375,9.80730152130127,0.12842632830142975,-0.1909235566854477
1742766304933863000,1.98486279296875,9.807297706604004,0.12626419961452484,-0.19259227812290192
1742766304938657300,1.9896572265625,9.807251930236816,0.12710605561733246,-0.19433389604091644
1742766304943452000,1.994451904296875,9.807292938232422,0.12541897594928741,-0.19334952533245087
1742766304948246500,1.99924658203125,9.807302474975586,0.12586292624473572,-0.19256769120693207
1742766304953041000,2.004041015625,9.807329177856445,0.12633877992630005,-0.1909305900335312
1742766304957835500,2.00883544921875,9.807293891906738,0.1248842403292656,-0.19366250932216644
1742766304962630000,2.0136298828125,9.807275772094727,0.12535274028778076,-0.19424177706241608
1742766304967424500,2.018424560546875,9.807297706604004,0.12480732798576355,-0.19353440403938293
1742766304972219000,2.023218994140625,9.807241439819336,0.1259019672870636,-0.19564855098724365
1742766304977000200,2.028000244140625,9.807230949401855,0.1273648738861084,-0.1952040195465088
1742766304981807900,2.032807861328125,9.807230949401855,0.12668754160404205,-0.19564171135425568
1742766304986602500,2.0376025390625,9.807246208190918,0.12563812732696533,-0.1955977976322174
1742766304991397000,2.042397216796875,9.807283401489258,0.12515920400619507,-0.19400665163993835
1742766304996191500,2.04719140625,9.807259559631348,0.12519410252571106,-0.1951708197593689
1742766305000986000,2.051986083984375,9.807207107543945,0.12543024122714996,-0.19764786958694458
1742766305005767200,2.05676708984375,9.807257652282715,0.12391233444213867,-0.19606132805347443
1742766305010575000,2.0615751953125,9.807260513305664,0.12379130721092224,-0.19600547850131989
1742766305015369500,2.066369384765625,9.807243347167969,0.12498275935649872,-0.19611498713493347
1742766305020150800,2.07115087890625,9.80718994140625,0.12597045302391052,-0.19817589223384857
1742766305024958700,2.075958740234375,9.807201385498047,0.1240663081407547,-0.1988103687763214
1742766305029753000,2.080753173828125,9.80726432800293,0.12248605489730835,-0.1966279298067093
1742766305034534100,2.0855341796875,9.807238578796387,0.1248711347579956,-0.19647429883480072
1742766305039342000,2.090342041015625,9.807117462158203,0.12534378468990326,-0.20208440721035004
1742766305044136700,2.09513671875,9.807161331176758,0.12094158679246902,-0.20267748832702637
1742766305048917800,2.099917724609375,9.807206153869629,0.1192515417933464,-0.20148098468780518
1742766305053725700,2.1047255859375,9.807188034057617,0.12000305205583572,-0.20189349353313446
1742766305058520000,2.10952001953125,9.807159423828125,0.12134990096092224,-0.20251139998435974
1742766305063314700,2.114314697265625,9.807269096374512,0.11833588778972626,-0.19892719388008118
1742766305068109000,2.119109130859375,9.807321548461914,0.11733553558588028,-0.19691519439220428
1742766305072903700,2.123903564453125,9.807364463806152,0.11822240799665451,-0.19424842298030853
1742766305077684700,2.128684814453125,9.807291030883789,0.11903108656406403,-0.19741305708885193
1742766305082492700,2.13349267578125,9.807245254516602,0.11950709670782089,-0.199408158659935
1742766305087287300,2.138287353515625,9.807328224182129,0.11730191111564636,-0.19663172960281372
1742766305092081700,2.14308154296875,9.807308197021484,0.1175321638584137,-0.19750137627124786
1742766305096876300,2.147876220703125,9.807196617126465,0.11922552436590195,-0.20195987820625305
1742766305101670700,2.152670654296875,9.807223320007324,0.11544960737228394,-0.2028607875108719
1742766305106452000,2.157451904296875,9.807276725769043,0.11209610104560852,-0.20214998722076416
1742766305111259600,2.162259765625,9.807230949401855,0.11337737739086151,-0.20366623997688293
1742766305116054300,2.16705419921875,9.807205200195312,0.1145363375544548,-0.20423230528831482
1742766305120848600,2.1718486328125,9.8071928024292,0.11390716582536697,-0.20520976185798645
1742766305125643300,2.176643310546875,9.807235717773438,0.11364496499300003,-0.20329421758651733
1742766305130438000,2.18143798828125,9.807223320007324,0.11563069373369217,-0.20275433361530304
1742766305135219000,2.186218994140625,9.807182312011719,0.11703653633594513,-0.20392775535583496
1742766305140027000,2.19102685546875,9.80721378326416,0.11622053384780884,-0.2028995007276535
1742766305144821200,2.1958212890625,9.807295799255371,0.11464662849903107,-0.19979172945022583
1742766305149615900,2.200615966796875,9.80721378326416,0.11561071127653122,-0.203203484416008
1742766305154410200,2.20541015625,9.807162284851074,0.11637123674154282,-0.20527316629886627
1742766305159204900,2.210204833984375,9.807210922241211,0.11420462280511856,-0.20418395102024078
1742766305163986000,2.21498583984375,9.807271957397461,0.11283832788467407,-0.20196127891540527
1742766305168793900,2.2197939453125,9.80721378326416,0.1136828139424324,-0.20430095493793488
1742766305173588500,2.22458837890625,9.807211875915527,0.11265724897384644,-0.20498022437095642
1742766305178369500,2.22936962890625,9.80722427368164,0.11273592710494995,-0.20432759821414948
1742766305183177500,2.234177490234375,9.807245254516602,0.1140359565615654,-0.20258565247058868
1742766305187971800,2.238971923828125,9.80717945098877,0.11490601301193237,-0.20530296862125397
1742766305192766500,2.243766357421875,9.807197570800781,0.11501968652009964,-0.20436106622219086
1742766305197560800,2.248560791015625,9.807260513305664,0.11474547535181046,-0.20146195590496063
1742766305202355500,2.25335546875,9.807249069213867,0.11462067812681198,-0.20207571983337402
1742766305207149800,2.25814990234375,9.807260513305664,0.11330099403858185,-0.20228351652622223
1742766305211944400,2.2629443359375,9.807259559631348,0.11276689916849136,-0.20264573395252228
1742766305216739000,2.267739013671875,9.807297706604004,0.11125456541776657,-0.2016141563653946
1742766305221533400,2.272533447265625,9.8073148727417,0.110635906457901,-0.20111392438411713
1742766305226328000,2.277328125,9.807326316833496,0.11106565594673157,-0.20033268630504608
1742766305231122400,2.282122314453125,9.80734920501709,0.1105995923280716,-0.19944864511489868
1742766305235917000,2.2869169921875,9.80736255645752,0.11140047013759613,-0.19837191700935364
1742766305240711400,2.29171142578125,9.807326316833496,0.11240817606449127,-0.19954372942447662
1742766305245506000,2.296506103515625,9.807280540466309,0.11318972706794739,-0.20132127404212952
1742766305250300400,2.301300537109375,9.807336807250977,0.11424225568771362,-0.19801677763462067
1742766305255095000,2.306094970703125,9.807374954223633,0.11357191205024719,-0.1964929699897766
1742766305259889400,2.310889404296875,9.807332992553711,0.11265676468610764,-0.1990906447172165
1742766305264684000,2.31568408203125,9.807348251342773,0.11203271895647049,-0.19871902465820312
1742766305269478700,2.320478759765625,9.807317733764648,0.11247146874666214,-0.19993941485881805
1742766305274273000,2.32527294921875,9.807353973388672,0.11160469800233841,-0.19862405955791473
1742766305279067600,2.330067626953125,9.80736255645752,0.1121070384979248,-0.1979677826166153
1742766305283862000,2.334862060546875,9.807340621948242,0.11258655041456223,-0.19875302910804749
1742766305288656600,2.33965673828125,9.80736255645752,0.11208445578813553,-0.19796353578567505
1742766305293451000,2.344450927734375,9.807372093200684,0.11208109557628632,-0.19748364388942719
1742766305298245600,2.34924560546875,9.807354927062988,0.11274512112140656,-0.19798578321933746
1742766305303040000,2.3540400390625,9.807388305664062,0.11322686076164246,-0.19600971043109894
1742766305307834600,2.358834716796875,9.807409286499023,0.11359592527151108,-0.1947932243347168
1742766305312629000,2.36362890625,9.80737018585205,0.11206147074699402,-0.19760693609714508
1742766305317423600,2.368423583984375,9.807411193847656,0.11032398045063019,-0.19650611281394958
1742766305322218200,2.37321826171875,9.807439804077148,0.11010443419218063,-0.1952267587184906
1742766305327012600,2.3780126953125,9.807459831237793,0.10979294776916504,-0.19436891376972198
1742766305331807200,2.38280712890625,9.807507514953613,0.10953523963689804,-0.19213496148586273
1742766305336601600,2.3876015625,9.807548522949219,0.10793542116880417,-0.1909353882074356
1742766305341396200,2.392396240234375,9.80750560760498,0.1088995561003685,-0.19253498315811157
1742766305346190800,2.39719091796875,9.807572364807129,0.10805079340934753,-0.18964651226997375
1742766305350972000,2.401971923828125,9.807543754577637,0.10783987492322922,-0.19120457768440247
1742766305355779800,2.40677978515625,9.80748462677002,0.1088564321398735,-0.1936659961938858
1742766305360574200,2.41157421875,9.80756950378418,0.10841797292232513,-0.1895671933889389
1742766305365368800,2.416368896484375,9.807600975036621,0.10755716264247894,-0.18841801583766937
1742766305370163200,2.4211630859375,9.807557106018066,0.10731543600559235,-0.19083185493946075
1742766305374957800,2.425957763671875,9.80759334564209,0.10591983795166016,-0.1897314488887787
1742766305379739000,2.43073876953125,9.807640075683594,0.10370726138353348,-0.18858186900615692
1742766305384546800,2.435546875,9.807618141174316,0.10492071509361267,-0.18901921808719635
1742766305389341200,2.440341064453125,9.80761432647705,0.10423532128334045,-0.18960627913475037
1742766305394122500,2.44512255859375,9.807660102844238,0.10186340659856796,-0.18853622674942017
1742766305398930400,2.449930419921875,9.807690620422363,0.10153328627347946,-0.1870686560869217
1742766305403724800,2.454724853515625,9.807640075683594,0.10388945788145065,-0.1884641945362091
1742766305408506000,2.459506103515625,9.807611465454102,0.10555945336818695,-0.18902580440044403
1742766305413313800,2.464313720703125,9.807710647583008,0.10347814112901688,-0.18498437106609344
1742766305418108400,2.4691083984375,9.807698249816895,0.10453139245510101,-0.1850423812866211
1742766305422889500,2.473889404296875,9.807618141174316,0.10561811178922653,-0.18861056864261627
1742766305427697400,2.478697509765625,9.807611465454102,0.10419570654630661,-0.18976972997188568
1742766305432491800,2.48349169921875,9.807611465454102,0.10135766863822937,-0.19128525257110596
1742766305437273000,2.488273193359375,9.807638168334961,0.09974172711372375,-0.19078655540943146
1742766305442080800,2.493080810546875,9.807626724243164,0.10140300542116165,-0.1904703974723816
1742766305446875400,2.49787548828125,9.807585716247559,0.10137422382831573,-0.19260239601135254
1742766305451656400,2.502656494140625,9.807663917541504,0.09765263646841049,-0.19053009152412415
1742766305456464400,2.50746435546875,9.807690620422363,0.09737437963485718,-0.18931186199188232
1742766305461259000,2.512259033203125,9.807624816894531,0.09991998225450516,-0.19132979214191437
1742766305466053400,2.517053466796875,9.807621955871582,0.0997752845287323,-0.19160303473472595
1742766305470848000,2.521847900390625,9.807658195495605,0.09924376010894775,-0.1899917721748352
1742766305475642400,2.526642333984375,9.807633399963379,0.09834566712379456,-0.19174572825431824
1742766305480437000,2.53143701171875,9.807644844055176,0.0966581329703331,-0.19201791286468506
1742766305485231400,2.5362314453125,9.807647705078125,0.09579361975193024,-0.1922614425420761
1742766305490026000,2.54102587890625,9.807662010192871,0.09463111311197281,-0.19212310016155243
1742766305494807000,2.54580712890625,9.807695388793945,0.09482745081186295,-0.19033627212047577
1742766305499615000,2.550614990234375,9.807689666748047,0.09396583586931229,-0.19104288518428802
1742766305504409600,2.55540966796875,9.807634353637695,0.09319896250963211,-0.19421865046024323
1742766305509204000,2.560203857421875,9.807655334472656,0.09224730730056763,-0.1936246156692505
1742766305513998600,2.56499853515625,9.807549476623535,0.09444862604141235,-0.1978863775730133
1742766305518793000,2.56979296875,9.80750846862793,0.09543809294700623,-0.19941498339176178
1742766305523587600,2.574587646484375,9.807619094848633,0.09434916079044342,-0.19445089995861053
1742766305528382200,2.57938232421875,9.80761432647705,0.0948377251625061,-0.19449111819267273
1742766305533176600,2.584176513671875,9.80755615234375,0.09286955744028091,-0.1983039826154709
1742766305537957600,2.58895751953125,9.807539939880371,0.09170763194561005,-0.19966848194599152
1742766305542765600,2.593765625,9.807504653930664,0.09155875444412231,-0.2014310359954834
1742766305547560200,2.598560302734375,9.807570457458496,0.09013085812330246,-0.19884267449378967
1742766305552354600,2.6033544921875,9.807576179504395,0.09189698100090027,-0.19778098165988922
1742766305557149200,2.608149169921875,9.807478904724121,0.09396820515394211,-0.20161816477775574
1742766305561943600,2.612943603515625,9.807497024536133,0.09314962476491928,-0.2011013627052307
1742766305566724900,2.617724853515625,9.807594299316406,0.09331326931715012,-0.1962021440267563
1742766305571532500,2.622532470703125,9.807516098022461,0.09515517950057983,-0.19919659197330475
1742766305576327200,2.6273271484375,9.80746841430664,0.0961197167634964,-0.20105835795402527
1742766305581121800,2.632121826171875,9.807491302490234,0.09667719155550003,-0.19966113567352295
1742766305585916200,2.636916259765625,9.807482719421387,0.09616190940141678,-0.20032168924808502
1742766305590710800,2.641710693359375,9.807448387145996,0.0951247587800026,-0.20251204073429108
1742766305595491800,2.646491943359375,9.80745792388916,0.09412241727113724,-0.202557772397995
1742766305600299800,2.6512998046875,9.807486534118652,0.09409422427415848,-0.20117028057575226
1742766305605094100,2.65609423828125,9.807479858398438,0.0953955203294754,-0.20087532699108124
1742766305609888800,2.660888671875,9.80749797821045,0.09425570070743561,-0.20048952102661133
1742766305614683100,2.66568310546875,9.807525634765625,0.09388850629329681,-0.19933369755744934
1742766305619477800,2.670477783203125,9.807503700256348,0.09564318507909775,-0.1995711475610733
1742766305624272100,2.675272216796875,9.80746841430664,0.09603593498468399,-0.20113635063171387
1742766305629066800,2.680066650390625,9.807483673095703,0.09516827762126923,-0.20079845190048218
1742766305633861400,2.684861328125,9.807498931884766,0.09642218053340912,-0.1994525045156479
1742766305638642400,2.689642333984375,9.807464599609375,0.09762904793024063,-0.20051778852939606
1742766305643450400,2.694450439453125,9.807548522949219,0.09542487561702728,-0.19747908413410187
1742766305648244700,2.69924462890625,9.807516098022461,0.0957123190164566,-0.1988983452320099
1742766305653026000,2.704026123046875,9.807490348815918,0.09378063678741455,-0.20113998651504517
1742766305657833700,2.708833740234375,9.807514190673828,0.09159249067306519,-0.20094257593154907
1742766305662628400,2.71362841796875,9.807522773742676,0.0930907130241394,-0.19984285533428192
1742766305667409400,2.718409423828125,9.807463645935059,0.09400837868452072,-0.2023150771856308
1742766305672217300,2.72321728515625,9.807524681091309,0.09264431893825531,-0.1999812126159668
1742766305677011700,2.72801171875,9.807510375976562,0.09370411187410355,-0.2001759260892868
1742766305681793000,2.73279296875,9.80746841430664,0.09501678496599197,-0.20163016021251678
1742766305686601000,2.73760107421875,9.807525634765625,0.09413785487413406,-0.19920483231544495
1742766305691395300,2.742395263671875,9.807557106018066,0.09579251706600189,-0.19684211909770966
1742766305696176400,2.74717626953125,9.807398796081543,0.09895187616348267,-0.2030927538871765
1742766305700984300,2.751984375,9.807355880737305,0.09543424099683762,-0.20679627358913422
1742766305705779000,2.756779052734375,9.80739974975586,0.09266764670610428,-0.20597968995571136
1742766305710560000,2.76156005859375,9.807361602783203,0.09422119706869125,-0.20710761845111847
1742766305715368000,2.766367919921875,9.807258605957031,0.09754464775323868,-0.21039915084838867
1742766305720162600,2.77116259765625,9.807313919067383,0.09463801980018616,-0.20918811857700348
1742766305724943600,2.775943603515625,9.807367324829102,0.0929422676563263,-0.20740795135498047
1742766305729751600,2.78075146484375,9.807332038879395,0.09444709122180939,-0.20839811861515045
1742766305734546000,2.7855458984375,9.807256698608398,0.09452708065509796,-0.21184393763542175
1742766305739327000,2.790326904296875,9.80722713470459,0.09501124918460846,-0.21301130950450897
1742766305744135000,2.795135009765625,9.807265281677246,0.09618806838989258,-0.21070922911167145
1742766305748929500,2.799929443359375,9.80723762512207,0.0954560935497284,-0.21234522759914398
1742766305753710600,2.804710693359375,9.807219505310059,0.09396826475858688,-0.2138567864894867
1742766305758518500,2.8095185546875,9.807195663452148,0.0938902422785759,-0.21494193375110626
1742766305763313000,2.81431298828125,9.807197570800781,0.09375188499689102,-0.21492527425289154
1742766305768107500,2.819107421875,9.807223320007324,0.0933985561132431,-0.21391288936138153
1742766305772902100,2.823902099609375,9.807293891906738,0.09311764687299728,-0.21080134809017181
1742766305777696500,2.828696533203125,9.807217597961426,0.09363318234682083,-0.21407166123390198
1742766305782491100,2.8334912109375,9.807219505310059,0.0922069251537323,-0.2145845890045166
1742766305787285500,2.838285400390625,9.8071928024292,0.0925399661064148,-0.215695321559906
1742766305792080100,2.843080078125,9.807178497314453,0.0935388058423996,-0.21589000523090363
1742766305796874500,2.84787451171875,9.807148933410645,0.09552246332168579,-0.21635617315769196
1742766305801669000,2.852669189453125,9.807171821594238,0.09467842429876328,-0.21571841835975647
1742766305806463500,2.85746337890625,9.807120323181152,0.09362861514091492,-0.21848787367343903
1742766305811244800,2.862244873046875,9.807144165039062,0.09210807085037231,-0.21806538105010986
1742766305816052500,2.867052490234375,9.807137489318848,0.09323731064796448,-0.21789389848709106
1742766305820847000,2.87184716796875,9.807137489318848,0.0930228978395462,-0.2179635763168335
1742766305825628200,2.876628173828125,9.80716609954834,0.09177865087985992,-0.21719372272491455
1742766305830436000,2.88143603515625,9.807147026062012,0.09300205111503601,-0.21755895018577576
1742766305835230700,2.886230712890625,9.807132720947266,0.09448771923780441,-0.21754974126815796
1742766305840025000,2.891025146484375,9.807157516479492,0.09374203532934189,-0.2167685329914093
1742766305844819700,2.89581982421875,9.80709171295166,0.09493090212345123,-0.21922074258327484
1742766305849614000,2.900614013671875,9.807037353515625,0.09656070172786713,-0.22089174389839172
1742766305854395400,2.9053955078125,9.807101249694824,0.09581280499696732,-0.21841049194335938
1742766305859203000,2.910203125,9.80708122253418,0.09534651041030884,-0.21949101984500885
1742766305863997700,2.914997802734375,9.807025909423828,0.09599930047988892,-0.22166627645492554
1742766305868792000,2.9197919921875,9.807058334350586,0.09415379166603088,-0.2210066318511963
1742766305873586700,2.924586669921875,9.807151794433594,0.09293687343597412,-0.21733318269252777
1742766305878381300,2.92938134765625,9.807133674621582,0.09522351622581482,-0.21716153621673584
1742766305883162400,2.934162353515625,9.807072639465332,0.0958210676908493,-0.21966809034347534
1742766305887970300,2.93897021484375,9.807093620300293,0.0942351222038269,-0.21943296492099762
1742766305892764700,2.9437646484375,9.807172775268555,0.09471305459737778,-0.21563711762428284
1742766305897559300,2.948559326171875,9.807109832763672,0.0959426686167717,-0.2179570496082306
1742766305902353700,2.953353759765625,9.807042121887207,0.09586583822965622,-0.22099682688713074
1742766305907148300,2.958148193359375,9.807108879089355,0.09573076665401459,-0.21806271374225616
1742766305911929300,2.962929443359375,9.807129859924316,0.09580907970666885,-0.2170904576778412
1742766305916737300,2.9677373046875,9.80709457397461,0.09576118737459183,-0.21872444450855255
1742766305921532000,2.972531982421875,9.80712604522705,0.09317047148942947,-0.21840374171733856
1742766305926326300,2.977326171875,9.80709171295166,0.0923258364200592,-0.2202899307012558
1742766305931121000,2.982120849609375,9.807072639465332,0.0929705873131752,-0.2208896428346634
1742766305935915300,2.986915283203125,9.807132720947266,0.09193247556686401,-0.2186703383922577
1742766305940696600,2.991696533203125,9.807138442993164,0.09251047670841217,-0.21811896562576294
1742766305945504300,2.996504150390625,9.807093620300293,0.0931987389922142,-0.2198382318019867
1742766305950299000,3.001298828125,9.807148933410645,0.09021130204200745,-0.218633234500885
1742766305955080000,3.006079833984375,9.807084083557129,0.09157013893127441,-0.2209804505109787
1742766305959888000,3.010887939453125,9.807095527648926,0.09160502254962921,-0.2204347550868988
1742766305964682500,3.0156826171875,9.807143211364746,0.09122543781995773,-0.21845224499702454
1742766305969463600,3.020463623046875,9.80707836151123,0.09274155646562576,-0.2207058072090149
1742766305974271500,3.025271484375,9.807025909423828,0.09132639318704605,-0.223615363240242
1742766305979065900,3.03006591796875,9.807029724121094,0.08993815630674362,-0.22402557730674744
1742766305983847200,3.03484716796875,9.807013511657715,0.0901629701256752,-0.22467704117298126
1742766305988654800,3.03965478515625,9.806981086730957,0.09202844649553299,-0.2253260761499405
1742766305993449500,3.044449462890625,9.80699348449707,0.09002682566642761,-0.22557617723941803
1742766305998230500,3.04923046875,9.807016372680664,0.08814036846160889,-0.22532117366790771
1742766306003038500,3.05403857421875,9.806997299194336,0.09031885862350464,-0.22527654469013214
1742766306007833000,3.0588330078125,9.806929588317871,0.09032008051872253,-0.2282342165708542
1742766306012627500,3.06362744140625,9.806953430175781,0.08898471295833588,-0.22771385312080383
1742766306017422000,3.068422119140625,9.80698013305664,0.08949818462133408,-0.2263878434896469
1742766306022216400,3.073216552734375,9.806900978088379,0.09156297892332077,-0.22893992066383362
1742766306027011000,3.078010986328125,9.806797981262207,0.09077206254005432,-0.2336488664150238
1742766306031805400,3.082805419921875,9.806835174560547,0.08840516954660416,-0.23297302424907684
1742766306036600000,3.08760009765625,9.80679702758789,0.08812786638736725,-0.23465721309185028
1742766306041381000,3.092381103515625,9.806814193725586,0.08865395188331604,-0.23376789689064026
1742766306046189000,3.09718896484375,9.806843757629395,0.08917088061571121,-0.23229505121707916
1742766306050983400,3.1019833984375,9.806836128234863,0.08762691915035248,-0.23321519792079926
1742766306055778000,3.106778076171875,9.806851387023926,0.08677416294813156,-0.23290568590164185
1742766306060572700,3.11157275390625,9.806827545166016,0.08690542727708817,-0.23385217785835266
1742766306065367000,3.116366943359375,9.806785583496094,0.08828771859407425,-0.23508821427822113
1742766306070161700,3.12116162109375,9.80678939819336,0.0882628932595253,-0.2349657118320465
1742766306074956000,3.1259560546875,9.806781768798828,0.08753999322652817,-0.23551839590072632
1742766306079750700,3.130750732421875,9.806676864624023,0.08724436908960342,-0.23996959626674652
1742766306084545000,3.135544921875,9.806686401367188,0.08737034350633621,-0.23951540887355804
1742766306089339600,3.140339599609375,9.806697845458984,0.08653078973293304,-0.2393580824136734
1742766306094134000,3.145134033203125,9.806731224060059,0.08555272966623306,-0.2383440136909485
1742766306098928600,3.1499287109375,9.806732177734375,0.0849381759762764,-0.2385321855545044
1742766306103723300,3.15472314453125,9.806672096252441,0.0849161297082901,-0.2409946620464325
1742766306108517600,3.159517578125,9.806587219238281,0.0853661522269249,-0.2442924827337265
1742766306113298700,3.164298583984375,9.8066987991333,0.08443783223628998,-0.24008548259735107
1742766306118106600,3.169106689453125,9.806659698486328,0.08638864755630493,-0.240972101688385
1742766306122901200,3.1739013671875,9.806520462036133,0.08893085271120071,-0.2456766813993454
1742766306127682300,3.178682373046875,9.806547164916992,0.08657224476337433,-0.24542570114135742
1742766306132490200,3.183490234375,9.806570053100586,0.08536703139543533,-0.24493467807769775
1742766306137284900,3.188284912109375,9.806489944458008,0.08558758348226547,-0.24807147681713104
1742766306142079200,3.193079345703125,9.806476593017578,0.08416251093149185,-0.2490757405757904
1742766306146873900,3.197873779296875,9.80647087097168,0.08383096754550934,-0.24939143657684326
1742766306151668200,3.202668212890625,9.806442260742188,0.0826583057641983,-0.2509215176105499
1742766306156449300,3.20744921875,9.80651569366455,0.08136739581823349,-0.24849940836429596
1742766306161257200,3.21225732421875,9.8065767288208,0.08202607184648514,-0.24583689868450165
1742766306166051800,3.2170517578125,9.806517601013184,0.08319011330604553,-0.2477772831916809
1742766306170846200,3.22184619140625,9.806512832641602,0.08275666832923889,-0.24813301861286163
1742766306175640800,3.226640869140625,9.80659008026123,0.0817146897315979,-0.24537277221679688
1742766306180435200,3.231435302734375,9.806618690490723,0.0834541916847229,-0.24365147948265076
1742766306185216500,3.236216552734375,9.80665111541748,0.0843764916062355,-0.24202819168567657
1742766306190024400,3.2410244140625,9.806602478027344,0.08202007412910461,-0.24481545388698578
1742766306194818800,3.24581884765625,9.806462287902832,0.08195023238658905,-0.25038620829582214
1742766306199599900,3.250599853515625,9.806404113769531,0.07970621436834335,-0.253396600484848
1742766306204407800,3.25540771484375,9.806487083435059,0.07922478020191193,-0.25029101967811584
1742766306209202400,3.260202392578125,9.806504249572754,0.08190374076366425,-0.2487400472164154
1742766306213983500,3.2649833984375,9.806541442871094,0.08054804056882858,-0.24772146344184875
1742766306218791400,3.26979150390625,9.806570053100586,0.07924243062734604,-0.24700970947742462
1742766306223585800,3.274585693359375,9.806584358215332,0.08009146898984909,-0.24616122245788574
1742766306228380400,3.27938037109375,9.806520462036133,0.08124876767396927,-0.24832937121391296
1742766306233174800,3.2841748046875,9.806567192077637,0.08120342344045639,-0.24647699296474457
1742766306237969400,3.288969482421875,9.806546211242676,0.08219268918037415,-0.24700401723384857
1742766306242750500,3.29375048828125,9.806428909301758,0.08349844068288803,-0.2511564791202545
1742766306247558400,3.298558349609375,9.806450843811035,0.08114179968833923,-0.25107941031455994
1742766306252353000,3.30335302734375,9.806550979614258,0.0795668512582779,-0.24765117466449738
1742766306257134000,3.308134033203125,9.806533813476562,0.08322632312774658,-0.24712148308753967
1742766306261942000,3.31294189453125,9.806571960449219,0.08460656553506851,-0.2451450079679489
1742766306266736400,3.317736328125,9.80660629272461,0.08238974213600159,-0.2445417195558548
1742766306271531000,3.322531005859375,9.806602478027344,0.08291351795196533,-0.2444906383752823
1742766306276325400,3.327325439453125,9.80656909942627,0.08511926233768463,-0.24510110914707184
1742766306281120000,3.3321201171875,9.806488037109375,0.08615443110466003,-0.24794799089431763
1742766306285914400,3.336914306640625,9.80643367767334,0.08692434430122375,-0.24981877207756042
1742766306290709000,3.341708984375,9.806509971618652,0.08636714518070221,-0.24699676036834717
1742766306295503600,3.346503662109375,9.806523323059082,0.08764155209064484,-0.24601978063583374
1742766306300284700,3.35128466796875,9.806437492370605,0.088328517973423,-0.2491634637117386
1742766306305092600,3.356092529296875,9.806489944458008,0.08696766942739487,-0.24758696556091309
1742766306309887000,3.360886962890625,9.80649185180664,0.08696020394563675,-0.24750719964504242
1742766306314668300,3.365668212890625,9.806418418884277,0.08739515393972397,-0.25025010108947754
1742766306319476000,3.37047607421875,9.806398391723633,0.08673535287380219,-0.25125986337661743
1742766306324270600,3.3752705078125,9.806388854980469,0.0883617103099823,-0.2510722577571869
1742766306329065200,3.380065185546875,9.80639362335205,0.08929896354675293,-0.2505743205547333
1742766306333859600,3.384859619140625,9.80642032623291,0.09002573043107986,-0.24923306703567505
1742766306338654200,3.389654296875,9.806398391723633,0.09014587104320526,-0.2500542104244232
1742766306343448600,3.394448486328125,9.806422233581543,0.09041876345872879,-0.24900475144386292
1742766306348243200,3.3992431640625,9.806461334228516,0.09191519767045975,-0.24691316485404968
1742766306353037600,3.40403759765625,9.806443214416504,0.09148985147476196,-0.24781271815299988
1742766306357818600,3.408818603515625,9.80637264251709,0.09127583354711533,-0.25068992376327515
1742766306362626600,3.41362646484375,9.806293487548828,0.09139086306095123,-0.2537132799625397
1742766306367421200,3.418421142578125,9.806302070617676,0.09028960019350052,-0.25376254320144653
1742766306372215600,3.423215576171875,9.806337356567383,0.09249429404735565,-0.2516031265258789
1742766306377010200,3.42801025390625,9.806303024291992,0.09370338916778564,-0.25250446796417236
1742766306381804800,3.4328046875,9.80636215209961,0.09186269342899323,-0.2508738040924072
1742766306386599200,3.43759912109375,9.806410789489746,0.09195808321237564,-0.2489217221736908
1742766306391393800,3.442393798828125,9.806363105773926,0.09445130079984665,-0.24985621869564056
1742766306396188200,3.447188232421875,9.806302070617676,0.09594868123531342,-0.2516811192035675
1742766306400969500,3.451969482421875,9.806347846984863,0.09429673850536346,-0.2505195140838623
1742766306405777200,3.456777099609375,9.806276321411133,0.0951569676399231,-0.2529870271682739
1742766306410571800,3.46157177734375,9.80626106262207,0.096257783472538,-0.25314760208129883
1742766306415366100,3.4663662109375,9.806280136108398,0.09489576518535614,-0.25291740894317627
1742766306420160800,3.471160888671875,9.806329727172852,0.09304377436637878,-0.25169432163238525
1742766306424955100,3.475955078125,9.806363105773926,0.09471414238214493,-0.24978603422641754
1742766306429736400,3.480736328125,9.8063383102417,0.09518712759017944,-0.2505526840686798
1742766306434544400,3.48554443359375,9.806353569030762,0.09401090443134308,-0.25038278102874756
1742766306439338800,3.4903388671875,9.806381225585938,0.09386419504880905,-0.24935290217399597
1742766306444120000,3.4951201171875,9.806333541870117,0.0959521010518074,-0.2504279911518097
1742766306448927700,3.499927734375,9.806272506713867,0.09675554186105728,-0.25250980257987976
1742766306453722400,3.504722412109375,9.80642318725586,0.09593629091978073,-0.24692721664905548
1742766306458503400,3.50950341796875,9.806403160095215,0.09719828516244888,-0.24723167717456818
1742766306463311400,3.514311279296875,9.806351661682129,0.0957275852560997,-0.2498174011707306
1742766306468105700,3.519105712890625,9.806438446044922,0.09302768856287003,-0.24742889404296875
1742766306472900400,3.523900390625,9.806427955627441,0.09295345842838287,-0.24787382781505585
1742766306477694700,3.52869482421875,9.806334495544434,0.09289234131574631,-0.25154387950897217
1742766306482489300,3.5334892578125,9.806428909301758,0.09171546250581741,-0.24830210208892822
1742766306487284000,3.538283935546875,9.806419372558594,0.09279865771532059,-0.24825705587863922
1742766306492078300,3.543078369140625,9.80643367767334,0.09267931431531906,-0.24774736166000366
1742766306496873000,3.547873046875,9.806507110595703,0.09184684604406357,-0.24512921273708344
1742766306501667300,3.552667236328125,9.806504249572754,0.09266085177659988,-0.24493278563022614
1742766306506462000,3.5574619140625,9.80649185180664,0.09262973070144653,-0.2454417645931244
1742766306511256300,3.56225634765625,9.806562423706055,0.09160617738962173,-0.2430044710636139
1742766306516051000,3.567051025390625,9.806564331054688,0.09109321236610413,-0.2431367188692093
1742766306520845300,3.57184521484375,9.806532859802246,0.09161736816167831,-0.24416649341583252
1742766306525640000,3.576639892578125,9.806556701660156,0.09045634418725967,-0.2436647117137909
1742766306530421000,3.5814208984375,9.806557655334473,0.08863256126642227,-0.24431727826595306
1742766306535229000,3.58622900390625,9.806550025939941,0.08914316445589066,-0.244399756193161
1742766306540023600,3.5910234375,9.806559562683105,0.08933426439762115,-0.24398724734783173
1742766306544804600,3.5958046875,9.806577682495117,0.08943157643079758,-0.2431994527578354
1742766306549612500,3.600612548828125,9.806559562683105,0.08953986316919327,-0.24389198422431946
1742766306554407000,3.605406982421875,9.806585311889648,0.08834002912044525,-0.24327892065048218
1742766306559201500,3.610201416015625,9.80652141571045,0.08935271203517914,-0.24548925459384918
1742766306563996000,3.614995849609375,9.806546211242676,0.08938786387443542,-0.24447938799858093
1742766306568790500,3.61979052734375,9.80657958984375,0.0889473706483841,-0.24329623579978943
1742766306573571600,3.624571533203125,9.806520462036133,0.08890032768249512,-0.2456807941198349
1742766306578379500,3.629379638671875,9.806473731994629,0.08773474395275116,-0.2479759007692337
1742766306583174100,3.634174072265625,9.806514739990234,0.08581763505935669,-0.24702750146389008
1742766306587968500,3.638968505859375,9.806507110595703,0.08726048469543457,-0.2468051165342331
1742766306592763100,3.64376318359375,9.8064603805542,0.0882304310798645,-0.24830064177513123
1742766306597557500,3.6485576171875,9.806469917297363,0.08732835203409195,-0.24825577437877655
1742766306602338800,3.6533388671875,9.806489944458008,0.08671215921640396,-0.24769867956638336
1742766306607146500,3.658146484375,9.806513786315918,0.08861720561981201,-0.24606896936893463
1742766306611941000,3.662941162109375,9.806446075439453,0.09097352623939514,-0.24790838360786438
1742766306616722200,3.66772216796875,9.806448936462402,0.0907500684261322,-0.24783791601657867
1742766306621530000,3.672530029296875,9.806497573852539,0.08968454599380493,-0.2463153451681137
1742766306626324700,3.67732470703125,9.806440353393555,0.09041308611631393,-0.2483304738998413
1742766306631105800,3.682105712890625,9.806341171264648,0.09247562289237976,-0.2514580488204956
1742766306635913700,3.686913818359375,9.806401252746582,0.0903187245130539,-0.24988868832588196
1742766306640708000,3.6917080078125,9.80642032623291,0.0892954021692276,-0.24951119720935822
1742766306645502700,3.696502685546875,9.806402206420898,0.09096495807170868,-0.24959544837474823
1742766306650297000,3.701297119140625,9.806387901306152,0.09134463220834732,-0.2500506341457367
1742766306655091700,3.706091796875,9.806385040283203,0.09035947918891907,-0.25050652027130127
1742766306659886000,3.710885986328125,9.806367874145508,0.09089799225330353,-0.25100934505462646
1742766306664680700,3.7156806640625,9.8063383102417,0.09217851608991623,-0.2516763210296631
1742766306669475300,3.720475341796875,9.806292533874512,0.09371623396873474,-0.25287267565727234
1742766306674256400,3.72525634765625,9.806282043457031,0.09548179805278778,-0.25265592336654663
1742766306679064300,3.730064208984375,9.806326866149902,0.09468517452478409,-0.25120022892951965
1742766306683858700,3.734858642578125,9.806269645690918,0.093881756067276,-0.2536942958831787
1742766306688653300,3.7396533203125,9.806259155273438,0.09417404234409332,-0.25402966141700745
1742766306693447700,3.74444775390625,9.80630874633789,0.0939793586730957,-0.25215351581573486
1742766306698242300,3.7492421875,9.80630874633789,0.09433563798666,-0.2520337998867035
1742766306703036700,3.75403662109375,9.80631160736084,0.0941600352525711,-0.2519878149032593
1742766306707831300,3.758831298828125,9.806313514709473,0.09373417496681213,-0.252074271440506
1742766306712625700,3.763625732421875,9.806307792663574,0.09476379305124283,-0.251920610666275
1742766306717420300,3.768420166015625,9.806285858154297,0.09684966504573822,-0.25196948647499084
1742766306722215000,3.77321484375,9.806257247924805,0.09659509360790253,-0.25316768884658813
1742766306727009300,3.77800927734375,9.806286811828613,0.09599646925926208,-0.25226283073425293
1742766306731804000,3.782803955078125,9.806349754333496,0.09684985131025314,-0.24946123361587524
1742766306736598300,3.787598388671875,9.806305885314941,0.099004365503788,-0.2503647804260254
1742766306741393000,3.792392822265625,9.806312561035156,0.09786008298397064,-0.2505405843257904
1742766306746174000,3.797174072265625,9.806354522705078,0.09447222203016281,-0.25018104910850525
1742766306750982000,3.80198193359375,9.806367874145508,0.09432701021432877,-0.24970778822898865
1742766306755776300,3.8067763671875,9.806320190429688,0.0960436463356018,-0.250931978225708
1742766306760557600,3.8115576171875,9.806236267089844,0.0966956615447998,-0.2539270222187042
1742766306765365200,3.816365234375,9.806245803833008,0.09454511106014252,-0.2543630003929138
1742766306770159900,3.821159912109375,9.80628490447998,0.09489616751670837,-0.2527635395526886
1742766306774941000,3.82594091796875,9.806267738342285,0.09734562039375305,-0.2524961829185486
1742766306779748900,3.830748779296875,9.806241989135742,0.09856288135051727,-0.2529792785644531
1742766306784543500,3.83554345703125,9.806325912475586,0.09716799110174179,-0.25029316544532776
1742766306789324500,3.840324462890625,9.806288719177246,0.096849225461483,-0.2518526315689087
1742766306794132500,3.845132568359375,9.806225776672363,0.09717308729887009,-0.2541632652282715
1742766306798926800,3.8499267578125,9.806205749511719,0.09695311635732651,-0.25501781702041626
1742766306803708200,3.854708251953125,9.80623722076416,0.09468390047550201,-0.25466522574424744
1742766306808515800,3.859515869140625,9.806241989135742,0.0939270555973053,-0.25473830103874207
1742766306813310500,3.864310546875,9.806236267089844,0.09405957907438278,-0.2549598515033722
1742766306818105000,3.86910498046875,9.806215286254883,0.0949288159608841,-0.2554250657558441
1742766306822899500,3.8738994140625,9.80626392364502,0.09566115587949753,-0.25328347086906433
1742766306827694000,3.878694091796875,9.80627727508545,0.09529697149991989,-0.2529003322124481
1742766306832488400,3.883488525390625,9.80617618560791,0.09678491204977036,-0.2562408149242401
1742766306837283000,3.888282958984375,9.806156158447266,0.0969751626253128,-0.256912499666214
1742766306842077400,3.893077392578125,9.806154251098633,0.09625376760959625,-0.2572409212589264
1742766306846872000,3.8978720703125,9.806087493896484,0.09641527384519577,-0.2597414553165436
1742766306851666700,3.902666748046875,9.806133270263672,0.09444431960582733,-0.25872787833213806
1742766306856461000,3.9074609375,9.806135177612305,0.09349898248910904,-0.2589735686779022
1742766306861255700,3.912255615234375,9.806109428405762,0.09116896986961365,-0.2607864439487457
1742766306866050000,3.917050048828125,9.806150436401367,0.09021870046854019,-0.25956061482429504
1742766306870844700,3.9218447265625,9.806122779846191,0.09049993753433228,-0.2605242133140564
1742766306875639000,3.92663916015625,9.8060941696167,0.09090578556060791,-0.26144102215766907
1742766306880433700,3.93143359375,9.806083679199219,0.09037791937589645,-0.2620373070240021
1742766306885228000,3.93622802734375,9.806044578552246,0.09113480895757675,-0.26325300335884094
1742766306890022700,3.941022705078125,9.806061744689941,0.09167204797267914,-0.2624058425426483
1742766306894817000,3.945817138671875,9.806158065795898,0.09162729978561401,-0.25881099700927734
1742766306899611600,3.950611572265625,9.806177139282227,0.09240540862083435,-0.25778689980506897
1742766306904392700,3.955392822265625,9.80605411529541,0.09218050539493561,-0.26251810789108276
1742766306909200600,3.96020068359375,9.806024551391602,0.09037373214960098,-0.2642194330692291
1742766306913995300,3.964995361328125,9.806035041809082,0.08800233155488968,-0.2646436393260956
1742766306918789600,3.96978955078125,9.80600357055664,0.08927445858716965,-0.26540106534957886
1742766306923584300,3.974584228515625,9.805967330932617,0.09064292907714844,-0.26625365018844604
1742766306928378600,3.979378662109375,9.805935859680176,0.09039344638586044,-0.2674925923347473
1742766306933173200,3.98417333984375,9.805968284606934,0.09027339518070221,-0.2663513123989105
1742766306937967600,3.988967529296875,9.806062698364258,0.08939533680677414,-0.2631615400314331
1742766306942762200,3.99376220703125,9.806015968322754,0.09326329827308655,-0.2635495662689209
1742766306947543300,3.998543212890625,9.806049346923828,0.09607218950986862,-0.2612863779067993
1742766306952351200,4.003351318359375,9.806147575378418,0.09623610973358154,-0.257536381483078
1742766306957145900,4.008145751953125,9.806066513061523,0.09467634558677673,-0.26114600896835327
1742766306961940200,4.012940185546875,9.806039810180664,0.09318795055150986,-0.26266393065452576
1742766306966734800,4.01773486328125,9.8060302734375,0.0921817272901535,-0.2634144723415375
1742766306971529200,4.022529296875,9.806000709533691,0.09350692480802536,-0.2640242278575897
1742766306976323800,4.02732373046875,9.80599594116211,0.09245860576629639,-0.2645857036113739
1742766306981118200,4.0321181640625,9.806047439575195,0.09121132642030716,-0.26310184597969055
1742766306985912800,4.036912841796875,9.80615234375,0.09134604036808014,-0.2591286301612854
1742766306990694000,4.04169384765625,9.806148529052734,0.09126020967960358,-0.2592574954032898
1742766306995501800,4.046501708984375,9.806078910827637,0.09126592427492142,-0.2619023323059082
1742766307000296200,4.051296142578125,9.806097030639648,0.09159103035926819,-0.2611202001571655
1742766307005077500,4.056077392578125,9.806081771850586,0.09469611197710037,-0.2605745494365692
1742766307009885400,4.060885498046875,9.80608081817627,0.09377072006464005,-0.26095256209373474
1742766307014679800,4.0656796875,9.806124687194824,0.09162404388189316,-0.2600802481174469
1742766307019460900,4.0704609375,9.806045532226562,0.09239540249109268,-0.26275965571403503
1742766307024268800,4.075268798828125,9.806071281433105,0.08981942385435104,-0.26269805431365967
1742766307029063400,4.0800634765625,9.806204795837402,0.08843576163053513,-0.25815722346305847
1742766307033844500,4.084844482421875,9.806199073791504,0.09022586792707443,-0.25773587822914124
1742766307038652400,4.08965234375,9.806117057800293,0.08887484669685364,-0.26132017374038696
1742766307043446800,4.09444677734375,9.806175231933594,0.08499151468276978,-0.260397732257843
1742766307048228000,4.09922802734375,9.806159973144531,0.08578963577747345,-0.26070913672447205
1742766307053035800,4.104035888671875,9.805953025817871,0.08947283029556274,-0.2671852111816406
1742766307057830400,4.108830322265625,9.80598258972168,0.08920780569314957,-0.26617810130119324
1742766307062611500,4.113611572265625,9.806075096130371,0.08901689946651459,-0.26282063126564026
1742766307067419400,4.11841943359375,9.806034088134766,0.08977417647838593,-0.26410403847694397
1742766307072214000,4.123214111328125,9.805994033813477,0.08831604570150375,-0.26602768898010254
1742766307077008400,4.12800830078125,9.80601978302002,0.08728200942277908,-0.26547160744667053
1742766307081803000,4.132802978515625,9.806032180786133,0.08725639432668686,-0.264997661113739
1742766307086597400,4.137597412109375,9.805968284606934,0.08836575597524643,-0.26698821783065796
1742766307091392000,4.14239208984375,9.805874824523926,0.08944880962371826,-0.2700468599796295
1742766307096186600,4.1471865234375,9.805910110473633,0.08967713266611099,-0.26868340373039246
1742766307100981000,4.15198095703125,9.805949211120605,0.09091321378946304,-0.2668146789073944
1742766307105775600,4.156775634765625,9.805889129638672,0.09174016118049622,-0.2687651813030243
1742766307110570000,4.161570068359375,9.805877685546875,0.09325657039880753,-0.26862993836402893
1742766307115364600,4.166364501953125,9.805908203125,0.09321905672550201,-0.26753634214401245
1742766307120145700,4.171145751953125,9.805830955505371,0.09263639897108078,-0.27054259181022644
1742766307124953600,4.17595361328125,9.805757522583008,0.09359229356050491,-0.2728644013404846
1742766307129748000,4.180748046875,9.80579948425293,0.09318190813064575,-0.27151498198509216
1742766307134542600,4.18554248046875,9.805814743041992,0.09414488822221756,-0.2706361711025238
1742766307139337000,4.1903369140625,9.805887222290039,0.0939924418926239,-0.26804038882255554
1742766307144131600,4.195131591796875,9.805909156799316,0.09295378625392914,-0.2676067650318146
1742766307148926200,4.19992626953125,9.805855751037598,0.09404352307319641,-0.269209086894989
1742766307153720600,4.204720458984375,9.805827140808105,0.09542028605937958,-0.26972416043281555
1742766307158515200,4.20951513671875,9.80583381652832,0.09580525010824203,-0.2693329155445099
1742766307163309600,4.2143095703125,9.80577564239502,0.09666619449853897,-0.2711499333381653
1742766307168104200,4.219104248046875,9.805789947509766,0.09684991836547852,-0.2705596387386322
1742766307172898600,4.223898681640625,9.805793762207031,0.09729000180959702,-0.27028095722198486
1742766307177693200,4.228693115234375,9.805768013000488,0.09753921627998352,-0.2711244821548462
1742766307182487600,4.233487548828125,9.805861473083496,0.09662781655788422,-0.2680630683898926
1742766307187282200,4.2382822265625,9.805887222290039,0.09679699689149857,-0.2670527994632721
1742766307192076500,4.24307666015625,9.805850982666016,0.09687617421150208,-0.2683756351470947
1742766307196871200,4.24787109375,9.805869102478027,0.09567585587501526,-0.26811039447784424
1742766307201665800,4.252665771484375,9.8058443069458,0.09628305584192276,-0.26878976821899414
1742766307206446800,4.25744677734375,9.805843353271484,0.09640885889530182,-0.2687942385673523
1742766307211254800,4.2622548828125,9.805896759033203,0.09729170054197311,-0.26652055978775024
1742766307216049200,4.267049072265625,9.805805206298828,0.09853091090917587,-0.26941144466400146
1742766307220843800,4.27184375,9.805871963500977,0.09791065007448196,-0.26719996333122253
1742766307225638100,4.27663818359375,9.805949211120605,0.0982355996966362,-0.2642582952976227
1742766307230432800,4.281432861328125,9.805878639221191,0.09779506921768188,-0.26700559258461
1742766307235227100,4.28622705078125,9.805768013000488,0.09742476791143417,-0.27116480469703674
1742766307240021800,4.291021728515625,9.805788040161133,0.0958598330616951,-0.2709960639476776
1742766307244816100,4.295816162109375,9.805795669555664,0.09557781368494034,-0.2708314061164856
1742766307249610800,4.30061083984375,9.80579948425293,0.09603530168533325,-0.2705237865447998
1742766307254405400,4.3054052734375,9.805815696716309,0.09573117643594742,-0.2700575888156891
1742766307259199700,4.31019970703125,9.805837631225586,0.09509064257144928,-0.2694699466228485
1742766307263994400,4.314994384765625,9.805842399597168,0.09369823336601257,-0.2697892189025879
1742766307268788700,4.319788818359375,9.805827140808105,0.09402095526456833,-0.2702410817146301
1742766307273583400,4.324583251953125,9.805807113647461,0.09475883096456528,-0.2707081735134125
1742766307278364400,4.329364501953125,9.805749893188477,0.09380737692117691,-0.27310237288475037
1742766307283172400,4.33417236328125,9.805691719055176,0.09312979876995087,-0.27540814876556396
1742766307287966700,4.338966796875,9.805694580078125,0.09284140914678574,-0.27538323402404785
1742766307292761300,4.34376123046875,9.805716514587402,0.09231952577829361,-0.27480554580688477
1742766307297555700,4.3485556640625,9.805672645568848,0.08939671516418457,-0.27728530764579773
1742766307302350300,4.353350341796875,9.805770874023438,0.08883121609687805,-0.27400127053260803
1742766307307131400,4.35813134765625,9.80571460723877,0.09026722609996796,-0.27555325627326965
1742766307311939300,4.362939208984375,9.805594444274902,0.0904918983578682,-0.2796979248523712
1742766307316734000,4.36773388671875,9.805685997009277,0.08682016283273697,-0.2776566445827484
1742766307321515000,4.372514892578125,9.805608749389648,0.08797593414783478,-0.2799908518791199
1742766307326323000,4.377322998046875,9.805418968200684,0.09287715703248978,-0.2850431203842163
1742766307331117300,4.382117431640625,9.80558967590332,0.09150289744138718,-0.27954375743865967
1742766307335898600,4.386898681640625,9.805703163146973,0.09006893634796143,-0.2759951055049896
1742766307340706300,4.391706298828125,9.805625915527344,0.09061344712972641,-0.27855122089385986
1742766307345501000,4.3965009765625,9.805665016174316,0.0902002677321434,-0.2773256003856659
1742766307350282000,4.401281982421875,9.805663108825684,0.08794566243886948,-0.27811044454574585
1742766307355090000,4.40608984375,9.80560302734375,0.08823622018098831,-0.2801445722579956
1742766307359884500,4.410884521484375,9.805564880371094,0.08907376229763031,-0.28121471405029297
1742766307364665600,4.41566552734375,9.805526733398438,0.08966966718435287,-0.2823532521724701
1742766307369473500,4.4204736328125,9.80553913116455,0.09120728820562363,-0.28138428926467896
1742766307374268000,4.425267822265625,9.805663108825684,0.0895778015255928,-0.27758604288101196
1742766307379049200,4.43004931640625,9.805591583251953,0.09217492491006851,-0.2792624235153198
1742766307383857000,4.43485693359375,9.805561065673828,0.09426481276750565,-0.27964669466018677
1742766307388651500,4.439651611328125,9.80568790435791,0.09276612848043442,-0.2756703794002533
1742766307393446100,4.444446044921875,9.805551528930664,0.09496581554412842,-0.27972257137298584
1742766307398240500,4.449240478515625,9.805436134338379,0.09486643970012665,-0.2837967872619629
1742766307403035100,4.45403515625,9.805429458618164,0.09468862414360046,-0.2840719223022461
1742766307407829500,4.45882958984375,9.80545711517334,0.0943043902516365,-0.2832385301589966
1742766307412624100,4.4636240234375,9.805562019348145,0.0933859571814537,-0.2799091041088104
1742766307417418500,4.46841845703125,9.805575370788574,0.09432635456323624,-0.27910932898521423
1742766307422213000,4.473213134765625,9.805520057678223,0.09434477984905243,-0.2810229957103729
1742766307427007500,4.478007568359375,9.80565071105957,0.09372551739215851,-0.27666425704956055
1742766307431802000,4.482802001953125,9.80566120147705,0.0944853350520134,-0.27601996064186096
1742766307436596700,4.4875966796875,9.805587768554688,0.0955098494887352,-0.27825427055358887
1742766307441391000,4.49239111328125,9.805574417114258,0.09508782625198364,-0.27887648344039917
1742766307446185700,4.497185791015625,9.805646896362305,0.09578752517700195,-0.2760750651359558
1742766307450980000,4.50197998046875,9.805563926696777,0.0963020995259285,-0.278856098651886
1742766307455774700,4.506774658203125,9.805659294128418,0.0938657596707344,-0.27629271149635315
1742766307460569000,4.511569091796875,9.805681228637695,0.09343117475509644,-0.27564680576324463
1742766307465350100,4.51635009765625,9.8056001663208,0.09456031769514084,-0.2781507670879364
1742766307470158000,4.521157958984375,9.80561351776123,0.0926482304930687,-0.2783196270465851
1742766307474952700,4.52595263671875,9.805634498596191,0.0911845937371254,-0.27805253863334656
1742766307479747000,4.5307470703125,9.805704116821289,0.09127413481473923,-0.2755647897720337
1742766307484541700,4.535541748046875,9.805747985839844,0.0923139899969101,-0.27365973591804504
1742766307489336300,4.54033642578125,9.805520057678223,0.09726081043481827,-0.2800329327583313
1742766307494117400,4.545117431640625,9.805509567260742,0.09421248733997345,-0.281469464302063
1742766307498925300,4.54992529296875,9.805718421936035,0.09244627505540848,-0.27467507123947144
1742766307503719700,4.5547197265625,9.805583000183105,0.09559464454650879,-0.2784096598625183
1742766307508501000,4.5595009765625,9.805497169494629,0.0940122976899147,-0.2819194495677948
1742766307513308700,4.56430859375,9.805545806884766,0.09311641752719879,-0.28054559230804443
1742766307518103300,4.569103271484375,9.805597305297852,0.09115742146968842,-0.2793784737586975
1742766307522884400,4.57388427734375,9.805570602416992,0.09059961140155792,-0.28051483631134033
1742766307527692300,4.5786923828125,9.805634498596191,0.09133612364530563,-0.27803146839141846
1742766307532486700,4.583486572265625,9.805559158325195,0.09442079067230225,-0.2796323299407959
1742766307537268000,4.58826806640625,9.805638313293457,0.0912981703877449,-0.2778995931148529
1742766307542076000,4.593075927734375,9.805708885192871,0.08970235288143158,-0.275909960269928
1742766307546870300,4.597870361328125,9.8056001663208,0.09166013449430466,-0.2791181206703186
1742766307551651600,4.602651611328125,9.805580139160156,0.09220018982887268,-0.2796246409416199
1742766307556459300,4.607459228515625,9.805643081665039,0.09039033204317093,-0.2780364751815796
1742766307561254000,4.61225390625,9.805657386779785,0.08890151977539062,-0.2780156135559082
1742766307566035000,4.617034912109375,9.805577278137207,0.09055344760417938,-0.28030508756637573
1742766307570843000,4.6218427734375,9.80559253692627,0.08955274522304535,-0.2800654470920563
1742766307575637200,4.62663720703125,9.805607795715332,0.08848057687282562,-0.27986130118370056
1742766307580432000,4.631431884765625,9.805624961853027,0.08820591121912003,-0.27936163544654846
1742766307585226200,4.636226318359375,9.805587768554688,0.08665815740823746,-0.2811421751976013
1742766307590020900,4.641020751953125,9.805553436279297,0.08774236589670181,-0.28202909231185913
1742766307594815500,4.6458154296875,9.805522918701172,0.08748031407594681,-0.28315094113349915
1742766307599609900,4.65060986328125,9.805513381958008,0.08666637539863586,-0.28372377157211304
1742766307604404500,4.655404541015625,9.805543899536133,0.08690167218446732,-0.28261497616767883
1742766307609198800,4.66019873046875,9.805591583251953,0.08647298812866211,-0.281084269285202
1742766307613993500,4.664993408203125,9.80548095703125,0.08801928907632828,-0.28444814682006836
1742766307618787800,4.669787841796875,9.805477142333984,0.08585196733474731,-0.28522562980651855
1742766307623569200,4.674569091796875,9.805468559265137,0.08329305797815323,-0.28629353642463684
1742766307628376800,4.679376953125,9.805427551269531,0.08345699310302734,-0.28762534260749817
1742766307633171500,4.68417138671875,9.805399894714355,0.08431142568588257,-0.2883177399635315
1742766307637965800,4.6889658203125,9.805415153503418,0.08400792628526688,-0.28788307309150696
1742766307642760400,4.693760498046875,9.805429458618164,0.08312731236219406,-0.287678599357605
1742766307647555000,4.69855517578125,9.805476188659668,0.08150331676006317,-0.28653597831726074
1742766307652336000,4.703336181640625,9.805421829223633,0.08380549401044846,-0.287746787071228
1742766307657144000,4.70814404296875,9.805295944213867,0.08681164681911469,-0.29111024737358093
1742766307661938400,4.7129384765625,9.805341720581055,0.08710887283086777,-0.2894953787326813
1742766307666733000,4.717733154296875,9.805373191833496,0.08607189357280731,-0.28869807720184326
1742766307671527400,4.72252734375,9.805329322814941,0.08604864031076431,-0.29018455743789673
1742766307676322000,4.727322021484375,9.805253982543945,0.0867198184132576,-0.29255494475364685
1742766307681116400,4.732116455078125,9.805197715759277,0.08682367950677872,-0.2944006621837616
1742766307685911000,4.7369111328125,9.80532455444336,0.08568277209997177,-0.2904565632343292
1742766307690705400,4.741705322265625,9.805416107177734,0.0850331261754036,-0.2875748574733734
1742766307695486700,4.74648681640625,9.80529499053955,0.0865207090973854,-0.29120439291000366
1742766307700294700,4.751294677734375,9.805275917053223,0.08659686893224716,-0.29184672236442566
1742766307705089000,4.756089111328125,9.805298805236816,0.08702027052640915,-0.29093489050865173
1742766307709870300,4.760870361328125,9.805266380310059,0.08706135302782059,-0.2920405864715576
1742766307714678000,4.765677978515625,9.805327415466309,0.08794329315423965,-0.28969067335128784
1742766307719472600,4.77047265625,9.805411338806152,0.08957823365926743,-0.2863668203353882
1742766307724253700,4.775253662109375,9.805292129516602,0.08987729996442795,-0.2902923822402954
1742766307729061600,4.7800615234375,9.8052978515625,0.08827706426382065,-0.29061007499694824
1742766307733856300,4.784856201171875,9.80543327331543,0.08624095469713211,-0.2866130471229553
1742766307738637300,4.78963720703125,9.805392265319824,0.09018245339393616,-0.28680938482284546
1742766307743445200,4.7944453125,9.805391311645508,0.09051584452390671,-0.2867280840873718
1742766307748239600,4.799239501953125,9.80547046661377,0.08686766773462296,-0.285150945186615
1742766307753020700,4.804020751953125,9.805484771728516,0.0870738998055458,-0.28459882736206055
1742766307757828600,4.80882861328125,9.805464744567871,0.08680573105812073,-0.2853780686855316
1742766307762623200,4.813623291015625,9.805383682250977,0.08805910497903824,-0.28776800632476807
1742766307767404300,4.818404296875,9.805438995361328,0.08797767013311386,-0.2859002649784088
1742766307772212200,4.823212158203125,9.805500984191895,0.08769040554761887,-0.2838572561740875
1742766307777006600,4.828006591796875,9.805448532104492,0.08816276490688324,-0.2855006754398346
1742766307781801200,4.83280126953125,9.805459976196289,0.08603333681821823,-0.28577739000320435
1742766307786595800,4.837595947265625,9.805543899536133,0.08550206571817398,-0.2830359935760498
1742766307791390200,4.84239013671875,9.805488586425781,0.08694444596767426,-0.28448721766471863
1742766307796184800,4.847184814453125,9.80555534362793,0.08689575642347336,-0.28220123052597046
1742766307800979200,4.851979248046875,9.805658340454102,0.08663973212242126,-0.2786979079246521
1742766307805773800,4.85677392578125,9.805681228637695,0.08557705581188202,-0.27822381258010864
1742766307810568200,4.861568115234375,9.805693626403809,0.08543071150779724,-0.27782970666885376
1742766307815362800,4.86636279296875,9.805659294128418,0.08619086444377899,-0.27878618240356445
1742766307820157200,4.8711572265625,9.805537223815918,0.08686225861310959,-0.28284701704978943
1742766307824951800,4.875951904296875,9.805659294128418,0.08527933806180954,-0.2790745794773102
1742766307829746200,4.88074609375,9.805663108825684,0.08662516623735428,-0.2785283029079437
1742766307834540800,4.885540771484375,9.805514335632324,0.08631373196840286,-0.2837889492511749
1742766307839335400,4.89033544921875,9.805469512939453,0.08582459390163422,-0.2855032980442047
1742766307844129800,4.8951298828125,9.805468559265137,0.08479098230600357,-0.2858465313911438
1742766307848924400,4.89992431640625,9.805459022521973,0.08373406529426575,-0.28648415207862854
1742766307853705500,4.90470556640625,9.805460929870605,0.08623950183391571,-0.28566214442253113
1742766307858513400,4.909513427734375,9.805427551269531,0.0853978842496872,-0.2870650589466095
1742766307863307800,4.914307861328125,9.805442810058594,0.08514392375946045,-0.2866145968437195
1742766307868102400,4.919102294921875,9.805542945861816,0.08580433577299118,-0.28297650814056396
1742766307872896800,4.923896728515625,9.805506706237793,0.08545736223459244,-0.2843257784843445
1742766307877691400,4.92869140625,9.805434226989746,0.08827929198741913,-0.28595009446144104
1742766307882472400,4.933472412109375,9.80556869506836,0.08615510910749435,-0.28199049830436707
1742766307887280400,4.9382802734375,9.80548095703125,0.08751377463340759,-0.2846239507198334
1742766307892075000,4.943074951171875,9.805364608764648,0.08813714981079102,-0.28837522864341736
1742766307896856000,4.94785595703125,9.805429458618164,0.08636211603879929,-0.28673025965690613
1742766307901664000,4.9526640625,9.80540943145752,0.08758949488401413,-0.28701043128967285
1742766307906458400,4.957458251953125,9.805387496948242,0.08951172232627869,-0.287178635597229
1742766307911253000,4.9622529296875,9.805438041687012,0.08893529325723648,-0.2856380045413971
1742766307916047400,4.96704736328125,9.805447578430176,0.08946734666824341,-0.28513526916503906
1742766307920842000,4.971842041015625,9.805489540100098,0.09020739048719406,-0.2834770977497101
1742766307925636400,4.97663623046875,9.805453300476074,0.09059111773967743,-0.2846040725708008
1742766307930431000,4.981430908203125,9.805288314819336,0.09325569123029709,-0.2893725037574768
1742766307935225300,4.986225341796875,9.805349349975586,0.0923667699098587,-0.28760281205177307
1742766307940020000,4.99102001953125,9.805376052856445,0.09463727474212646,-0.285910427570343
1742766307944814600,4.995814697265625,9.805225372314453,0.09673948585987091,-0.2903537154197693
1742766307949609000,5.00060888671875,9.805280685424805,0.09589841216802597,-0.2887665331363678
1742766307954390300,5.005390380859375,9.805344581604004,0.09447553008794785,-0.28706395626068115
1742766307959198000,5.010197998046875,9.805294036865234,0.09552393108606339,-0.28843140602111816
1742766307963992600,5.01499267578125,9.805228233337402,0.09788483381271362,-0.289848268032074
1742766307968773600,5.019773681640625,9.805255889892578,0.09601467102766037,-0.2895700931549072
1742766307973581600,5.02458154296875,9.805253982543945,0.09712190926074982,-0.2892337441444397
1742766307978376000,5.0293759765625,9.805304527282715,0.09820254147052765,-0.2871738374233246
1742766307983157200,5.0341572265625,9.805243492126465,0.09918812662363052,-0.28894296288490295
1742766307987965000,5.03896484375,9.805244445800781,0.100398488342762,-0.288443922996521
1742766307992759600,5.043759521484375,9.805373191833496,0.09980440139770508,-0.2842676341533661
1742766307997554200,5.04855419921875,9.80533504486084,0.10052057355642319,-0.2853172719478607
1742766308002348500,5.0533486328125,9.805246353149414,0.10091512650251389,-0.2882333993911743
1742766308007143200,5.05814306640625,9.805228233337402,0.10007890313863754,-0.2891329526901245
1742766308011937500,5.0629375,9.805249214172363,0.09976645559072495,-0.28850510716438293
1742766308016732200,5.067732177734375,9.805269241333008,0.10042522102594376,-0.2876017987728119
1742766308021526500,5.072526611328125,9.805334091186523,0.0995294451713562,-0.2856930196285248
1742766308026321200,5.077321044921875,9.805280685424805,0.10005509108304977,-0.287332147359848
1742766308031115500,5.082115478515625,9.805344581604004,0.0988893210887909,-0.28557074069976807
1742766308035910100,5.08691015625,9.805344581604004,0.09838620573282242,-0.2857666313648224
1742766308040691200,5.091691162109375,9.805276870727539,0.10049115121364594,-0.2873106896877289
1742766308045499100,5.0964990234375,9.805330276489258,0.10112219303846359,-0.2852778732776642
1742766308050293800,5.101293701171875,9.805359840393066,0.10080116242170334,-0.284371018409729
1742766308055088000,5.106088134765625,9.805249214172363,0.10174483060836792,-0.2878077030181885
1742766308059882800,5.1108828125,9.805256843566895,0.10091481357812881,-0.2878606617450714
1742766308064677000,5.115677001953125,9.805286407470703,0.09946601837873459,-0.287371963262558
1742766308069471700,5.1204716796875,9.805291175842285,0.09921642392873764,-0.2872737646102905
1742766308074266000,5.12526611328125,9.805252075195312,0.10078361630439758,-0.2880808115005493
1742766308079060700,5.130060791015625,9.805235862731934,0.1011347770690918,-0.2884954810142517
1742766308083841800,5.134841796875,9.805318832397461,0.09847843647003174,-0.2865961194038391
1742766308088649700,5.139649658203125,9.805355072021484,0.10017669200897217,-0.28475329279899597
1742766308093444400,5.1444443359375,9.805265426635742,0.10207066684961319,-0.28716036677360535
1742766308098238700,5.14923876953125,9.805244445800781,0.10292980074882507,-0.2875365912914276
1742766308103033300,5.154033447265625,9.805298805236816,0.10170626640319824,-0.2861323654651642
1742766308107827700,5.15882763671875,9.805282592773438,0.10014723986387253,-0.2872505486011505
1742766308112609000,5.163609130859375,9.805220603942871,0.1007082536816597,-0.289161741733551
1742766308117416700,5.168416748046875,9.80523681640625,0.09926412999629974,-0.28908631205558777
1742766308122211300,5.17321142578125,9.805207252502441,0.0985192209482193,-0.29035988450050354
1742766308127006000,5.178005859375,9.805169105529785,0.09830410778522491,-0.29173412919044495
1742766308131800300,5.18280029296875,9.805171966552734,0.09639516472816467,-0.292259156703949
1742766308136595000,5.187594970703125,9.80518913269043,0.09741563349962234,-0.291363924741745
1742766308141376000,5.1923759765625,9.805145263671875,0.09832792729139328,-0.2925068438053131
1742766308146184000,5.197183837890625,9.805084228515625,0.09659009426832199,-0.29511648416519165
1742766308150978300,5.201978271484375,9.80507755279541,0.09731493890285492,-0.29511308670043945
1742766308155773000,5.20677294921875,9.805135726928711,0.0977688878774643,-0.2930283844470978
1742766308160567300,5.2115673828125,9.80515193939209,0.09767591208219528,-0.2925100028514862
1742766308165362000,5.21636181640625,9.805045127868652,0.0963347852230072,-0.2964995503425598
1742766308170143000,5.22114306640625,9.805037498474121,0.09332940727472305,-0.29771196842193604
1742766308174951000,5.225950927734375,9.805035591125488,0.09375834465026855,-0.29763394594192505
1742766308179745500,5.23074560546875,9.80504035949707,0.09387080371379852,-0.29743751883506775
1742766308184526600,5.235526611328125,9.805083274841309,0.09229818731546402,-0.29653117060661316
1742766308189334500,5.24033447265625,9.805048942565918,0.09237287193536758,-0.29763802886009216
1742766308194129000,5.24512890625,9.805072784423828,0.09232351928949356,-0.29686468839645386
1742766308198910000,5.249909912109375,9.805183410644531,0.09061606228351593,-0.2937333285808563
1742766308203718000,5.2547177734375,9.805122375488281,0.09109185636043549,-0.29558560252189636
1742766308208512500,5.259512451171875,9.805004119873047,0.09210940450429916,-0.29919177293777466
1742766308213307000,5.264306884765625,9.805052757263184,0.09195540100336075,-0.2976403832435608
1742766308218101500,5.2691015625,9.80505657196045,0.09141544997692108,-0.297677606344223
1742766308222895900,5.273895751953125,9.805044174194336,0.09044776856899261,-0.29841580986976624
1742766308227677200,5.27867724609375,9.805048942565918,0.09114908427000046,-0.2980172336101532
1742766308232485000,5.283485107421875,9.80502700805664,0.091795913875103,-0.29854896664619446
1742766308237279500,5.288279541015625,9.805066108703613,0.09127543121576309,-0.2973889112472534
1742766308242074000,5.29307421875,9.805135726928711,0.08963790535926819,-0.295621395111084
1742766308246868500,5.297868408203125,9.80511474609375,0.08945674449205399,-0.29634666442871094
1742766308251663000,5.3026630859375,9.805049896240234,0.09141838550567627,-0.2979098856449127
1742766308256457500,5.30745751953125,9.804974555969238,0.09272999316453934,-0.29999980330467224
1742766308261252000,5.312252197265625,9.804967880249023,0.09234660863876343,-0.3003179728984833
1742766308266046500,5.31704638671875,9.805066108703613,0.09126920998096466,-0.29741135239601135
1742766308270827800,5.321827880859375,9.805026054382324,0.09354083985090256,-0.29804280400276184
1742766308275635500,5.326635498046875,9.804909706115723,0.09388075023889542,-0.3017360270023346
1742766308280430000,5.33143017578125,9.804892539978027,0.09325934946537018,-0.30247241258621216
1742766308285211100,5.336211181640625,9.80493450164795,0.09130297601222992,-0.3017232120037079
1742766308290019000,5.34101904296875,9.804944038391113,0.09151315689086914,-0.3013164699077606
1742766308294813700,5.345813720703125,9.80490779876709,0.09416455775499344,-0.30171677470207214
1742766308299608000,5.350608154296875,9.804941177368164,0.09241890162229538,-0.30115556716918945
1742766308304402700,5.355402587890625,9.804939270019531,0.09190695732831955,-0.30137547850608826
1742766308309197000,5.360197021484375,9.804983139038086,0.09103304147720337,-0.30021899938583374
1742766308313978400,5.364978271484375,9.80495834350586,0.09237360209226608,-0.3006046712398529
1742766308318786000,5.3697861328125,9.805004119873047,0.09225683659315109,-0.2991476058959961
1742766308323580700,5.37458056640625,9.805023193359375,0.09147535264492035,-0.29876163601875305
1742766308328375000,5.379375,9.804962158203125,0.09105231612920761,-0.3008855879306793
1742766308333169700,5.384169677734375,9.804941177368164,0.09023892879486084,-0.30183500051498413
1742766308337964300,5.38896435546875,9.80494499206543,0.09040237218141556,-0.30163875222206116
1742766308342758700,5.393758544921875,9.804929733276367,0.08925928920507431,-0.30248507857322693
1742766308347553300,5.39855322265625,9.804935455322266,0.0891730785369873,-0.3023023307323456
1742766308352347600,5.40334765625,9.80490493774414,0.08938460052013397,-0.3032369315624237
1742766308357142300,5.408142333984375,9.804900169372559,0.08870373666286469,-0.303617388010025
1742766308361936600,5.4129365234375,9.804963111877441,0.08739634603261948,-0.30194833874702454
1742766308366731300,5.417731201171875,9.804856300354004,0.08892073482275009,-0.3049546480178833
1742766308371525600,5.422525634765625,9.80479907989502,0.09021230787038803,-0.3064255118370056
1742766308376320300,5.4273203125,9.804875373840332,0.08983529359102249,-0.30406415462493896
1742766308381114600,5.432114501953125,9.804848670959473,0.09072604775428772,-0.3046826720237732
1742766308385909200,5.4369091796875,9.80474853515625,0.09095299243927002,-0.3078218102455139
1742766308390703900,5.441703857421875,9.804779052734375,0.08972813934087753,-0.30720430612564087
1742766308395498200,5.446498291015625,9.804767608642578,0.08953578770160675,-0.30760836601257324
1742766308400292900,5.45129296875,9.804696083068848,0.09108620882034302,-0.3094354569911957
1742766308405087200,5.456087158203125,9.804760932922363,0.09126047790050507,-0.30732086300849915
1742766308409881900,5.4608818359375,9.804787635803223,0.09102010726928711,-0.3065416216850281
1742766308414663000,5.465662841796875,9.804767608642578,0.09180198609828949,-0.30695071816444397
1742766308419470800,5.470470947265625,9.804845809936523,0.09129945188760757,-0.3045809864997864
1742766308424265200,5.47526513671875,9.80471134185791,0.09312251955270767,-0.3083466589450836
1742766308429059800,5.480059814453125,9.804666519165039,0.0935591608285904,-0.30962038040161133
1742766308433854200,5.484854248046875,9.804741859436035,0.09231152385473251,-0.30761808156967163
1742766308438648800,5.48964892578125,9.804610252380371,0.0942554920911789,-0.3111896216869354
1742766308443443500,5.494443359375,9.804621696472168,0.09374141693115234,-0.31100091338157654
1742766308448237800,5.49923779296875,9.804695129394531,0.09293882548809052,-0.3089146912097931
1742766308453032400,5.504032470703125,9.804695129394531,0.09242355078458786,-0.30907514691352844
1742766308457826800,5.508826904296875,9.804708480834961,0.09138356894254684,-0.3089589476585388
1742766308462621400,5.513621337890625,9.80477237701416,0.09217710047960281,-0.3066694736480713
1742766308467415800,5.518415771484375,9.80469036102295,0.09306541085243225,-0.30903831124305725
1742766308472197000,5.523197021484375,9.804723739624023,0.09095733612775803,-0.30858948826789856
1742766308477004800,5.5280048828125,9.804695129394531,0.09261732548475266,-0.3090222179889679
1742766308481799400,5.53279931640625,9.804594993591309,0.0934673473238945,-0.31190404295921326
1742766308486593800,5.53759375,9.80463695526123,0.09385919570922852,-0.31045711040496826
1742766308491388400,5.542388427734375,9.804622650146484,0.0938170775771141,-0.3109314739704132
1742766308496183000,5.54718310546875,9.804463386535645,0.09310568124055862,-0.3161188066005707
1742766308500964000,5.551964111328125,9.804455757141113,0.0925346240401268,-0.3165189027786255
1742766308505772000,5.55677197265625,9.804485321044922,0.0926065593957901,-0.31560030579566956
1742766308510566400,5.56156640625,9.804403305053711,0.09327778220176697,-0.31793779134750366
1742766308515347700,5.56634765625,9.804458618164062,0.09220140427350998,-0.3165260851383209
1742766308520155400,5.5711552734375,9.804469108581543,0.093574158847332,-0.31580492854118347
1742766308524950000,5.575949951171875,9.804459571838379,0.09458882361650467,-0.315806120634079
1742766308529731000,5.58073095703125,9.804459571838379,0.09328616410493851,-0.31619083881378174
1742766308534539000,5.5855390625,9.804439544677734,0.09390165656805038,-0.3166554272174835
1742766308539333600,5.590333740234375,9.804292678833008,0.0965442806482315,-0.3203451931476593
1742766308544114700,5.59511474609375,9.804300308227539,0.09616649150848389,-0.32026034593582153
1742766308548922600,5.599922607421875,9.804375648498535,0.09539023786783218,-0.318167120218277
1742766308553717000,5.604717041015625,9.804316520690918,0.09695551544427872,-0.3195095956325531
1742766308558511600,5.60951171875,9.804293632507324,0.09590310603380203,-0.3205409348011017
1742766308563306000,5.614305908203125,9.80431842803955,0.09522609412670135,-0.31994444131851196
1742766308568100600,5.6191005859375,9.804280281066895,0.09686458855867386,-0.3206564486026764
1742766308572881700,5.623881591796875,9.804253578186035,0.09584932029247284,-0.3217567503452301
1742766308577689600,5.628689697265625,9.804292678833008,0.09682179242372513,-0.3202963173389435
1742766308582484200,5.633484130859375,9.80427360534668,0.09844684600830078,-0.3203659653663635
1742766308587278600,5.638278564453125,9.804298400878906,0.09778948128223419,-0.31978654861450195
1742766308592073200,5.6430732421875,9.804349899291992,0.09733141958713531,-0.31836625933647156
1742766308596867600,5.64786767578125,9.804335594177246,0.09877888113260269,-0.31836214661598206
1742766308601648600,5.652648681640625,9.804280281066895,0.09933251142501831,-0.3198777139186859
1742766308606456600,5.65745654296875,9.80428695678711,0.09925612807273865,-0.3197158873081207
1742766308611251200,5.662251220703125,9.8042573928833,0.09835522621870041,-0.32087650895118713
1742766308616032300,5.6670322265625,9.804272651672363,0.09721845388412476,-0.32076752185821533
1742766308620840200,5.671840087890625,9.80429744720459,0.09798622131347656,-0.31976747512817383
1742766308625634800,5.676634765625,9.804319381713867,0.09740554541349411,-0.31929656863212585
1742766308630429200,5.68142919921875,9.804328918457031,0.09635862708091736,-0.3193071484565735
1742766308635223800,5.686223876953125,9.80443000793457,0.09545549750328064,-0.31645897030830383
1742766308640018200,5.69101806640625,9.804439544677734,0.09674636274576187,-0.3157940208911896
1742766308644812800,5.695812744140625,9.804393768310547,0.09814933687448502,-0.316752552986145
1742766308649607200,5.700607177734375,9.80451488494873,0.09746161103248596,-0.3132225573062897
1742766308654401800,5.70540185546875,9.80455207824707,0.09764610975980759,-0.3119771182537079
1742766308659182800,5.710182861328125,9.80441951751709,0.09914469718933105,-0.31564953923225403
1742766308663990800,5.71499072265625,9.804407119750977,0.09783318638801575,-0.3164336383342743
1742766308668785200,5.71978515625,9.804398536682129,0.09708694368600845,-0.31695541739463806
1742766308673579800,5.724579833984375,9.80435848236084,0.09667185693979263,-0.31830310821533203
1742766308678374100,5.7293740234375,9.804349899291992,0.0962715893983841,-0.3186899423599243
1742766308683168800,5.734168701171875,9.804380416870117,0.09650585055351257,-0.3176657259464264
1742766308687963400,5.73896337890625,9.8043851852417,0.0952167734503746,-0.31794384121894836
1742766308692757800,5.7437578125,9.80441665649414,0.09414926916360855,-0.3172793686389923
1742766308697552400,5.748552490234375,9.804378509521484,0.09544171392917633,-0.3180435597896576
1742766308702346800,5.7533466796875,9.804368019104004,0.0948798879981041,-0.31856387853622437
1742766308707141400,5.758141357421875,9.804391860961914,0.09511874616146088,-0.3177444338798523
1742766308711935700,5.762935791015625,9.804431915283203,0.09548641741275787,-0.31641730666160583
1742766308716730400,5.76773046875,9.804418563842773,0.09447520226240158,-0.31711190938949585
1742766308721524700,5.772524658203125,9.804479598999023,0.09392065554857254,-0.3153736889362335
1742766308726319400,5.7773193359375,9.80447769165039,0.09241718053817749,-0.31588879227638245
1742766308731113700,5.78211376953125,9.8045015335083,0.09188615530729294,-0.315308153629303
1742766308735908400,5.786908447265625,9.804498672485352,0.09223606437444687,-0.3152773380279541
1742766308740703000,5.791702880859375,9.804505348205566,0.09132496267557144,-0.3153369128704071
1742766308745497300,5.796497314453125,9.804550170898438,0.09014683216810226,-0.31429523229599
1742766308750292000,5.8012919921875,9.804505348205566,0.09028947353363037,-0.31562113761901855
1742766308755086300,5.80608642578125,9.804433822631836,0.09134157001972198,-0.3175524175167084
1742766308759867600,5.81086767578125,9.804466247558594,0.09135270118713379,-0.316536545753479
1742766308764675300,5.81567529296875,9.804525375366211,0.0919356495141983,-0.3145518898963928
1742766308769470000,5.820469970703125,9.804458618164062,0.09294414520263672,-0.31630149483680725
1742766308774251000,5.8252509765625,9.804494857788086,0.09188476204872131,-0.3155125081539154
1742766308779059000,5.830058837890625,9.804512023925781,0.09084372222423553,-0.3152863681316376
1742766308783853300,5.834853271484375,9.804490089416504,0.09138283878564835,-0.3158084452152252
1742766308788648000,5.83964794921875,9.804463386535645,0.09140171110630035,-0.31661003828048706
1742766308793442600,5.844442626953125,9.8045072555542,0.0910218134522438,-0.3153640627861023
1742766308798237000,5.84923681640625,9.804434776306152,0.09255173057317734,-0.3171764612197876
1742766308803031600,5.854031494140625,9.80451488494873,0.0920606479048729,-0.3148568570613861
1742766308807826000,5.858825927734375,9.804513931274414,0.09231202304363251,-0.3147966265678406
1742766308812620500,5.86362060546875,9.804422378540039,0.09422935545444489,-0.3170512020587921
1742766308817415000,5.868414794921875,9.804436683654785,0.0941634476184845,-0.31664690375328064
1742766308822209500,5.87320947265625,9.804530143737793,0.09374521672725677,-0.3138790726661682
1742766308827004000,5.87800390625,9.804425239562988,0.0955301895737648,-0.3165839612483978
1742766308831798500,5.882798583984375,9.80444049835205,0.0925118625164032,-0.3170037865638733
1742766308836593000,5.887593017578125,9.804483413696289,0.09192125499248505,-0.3158620595932007
1742766308841387500,5.892387451171875,9.804491996765137,0.09294922649860382,-0.31528574228286743
1742766308846168600,5.89716845703125,9.804475784301758,0.09276843070983887,-0.31586262583732605
1742766308850976500,5.9019765625,9.80453109741211,0.09248212724924088,-0.31418517231941223
1742766308855771100,5.906771240234375,9.804598808288574,0.09218708425760269,-0.3121778964996338
1742766308860565500,5.9115654296875,9.804530143737793,0.09285375475883484,-0.3141423463821411
1742766308865360100,5.916360107421875,9.804513931274414,0.09384653717279434,-0.31434446573257446
1742766308870154500,5.921154541015625,9.80459976196289,0.0942545235157013,-0.31152665615081787
1742766308874935800,5.925935791015625,9.804644584655762,0.09425140172243118,-0.3101068139076233
1742766308879743500,5.930743408203125,9.804553031921387,0.09404369443655014,-0.3130546808242798
1742766308884538000,5.9355380859375,9.804463386535645,0.09325702488422394,-0.3160768151283264
1742766308889319200,5.940319091796875,9.80453109741211,0.09250672161579132,-0.3142053782939911
1742766308894127000,5.945127197265625,9.804543495178223,0.09343045204877853,-0.31353217363357544
1742766308898921700,5.949921630859375,9.804539680480957,0.09361164271831512,-0.3135983943939209
1742766308903716000,5.954716064453125,9.804577827453613,0.09315195679664612,-0.31255894899368286
1742766308908510700,5.9595107421875,9.804520606994629,0.0941518098115921,-0.3140311539173126
1742766308913305000,5.96430517578125,9.804497718811035,0.09258192777633667,-0.3152131140232086
1742766308918086400,5.96908642578125,9.804489135742188,0.09186672419309616,-0.31570595502853394
1742766308922894000,5.97389404296875,9.804441452026367,0.09419991075992584,-0.3164806067943573
1742766308927688700,5.978688720703125,9.804407119750977,0.09507302939891815,-0.31729602813720703
1742766308932469800,5.9834697265625,9.804436683654785,0.09380485862493515,-0.31676632165908813
1742766308937277700,5.988277587890625,9.804481506347656,0.09384747594594955,-0.31534451246261597
1742766308942072000,5.993072021484375,9.80450439453125,0.09397155791521072,-0.31459084153175354
1742766308946866700,5.99786669921875,9.804502487182617,0.09228438138961792,-0.31516215205192566
1742766308951661300,6.002661376953125,9.804475784301758,0.09205666929483414,-0.31605345010757446
1742766308956455700,6.00745556640625,9.804390907287598,0.09234155714511871,-0.31858548521995544
1742766308961237000,6.012237060546875,9.804399490356445,0.09149836748838425,-0.31856420636177063
1742766308966044700,6.017044677734375,9.804519653320312,0.09164262562990189,-0.3148195743560791
1742766308970839300,6.02183935546875,9.80453109741211,0.09149078279733658,-0.31447121500968933
1742766308975620400,6.026620361328125,9.804489135742188,0.09063776582479477,-0.31605008244514465
1742766308980428300,6.03142822265625,9.804543495178223,0.09113575518131256,-0.3142282962799072
1742766308985222700,6.03622265625,9.804597854614258,0.09250674396753311,-0.31211423873901367
1742766308990004000,6.04100390625,9.804559707641602,0.09184660762548447,-0.31351467967033386
1742766308994811600,6.045811767578125,9.804582595825195,0.09148632735013962,-0.31289124488830566
1742766308999606300,6.050606201171875,9.804558753967285,0.09063033014535904,-0.3138909637928009
1742766309004387300,6.05538720703125,9.804430961608887,0.09120604395866394,-0.317670613527298
1742766309009195300,6.0601953125,9.804417610168457,0.09177128970623016,-0.31790995597839355
1742766309013990000,6.064989990234375,9.80452823638916,0.08996310085058212,-0.31501707434654236
1742766309018771000,6.06977099609375,9.804570198059082,0.09209197014570236,-0.3130885064601898
1742766309023579000,6.074578857421875,9.80461311340332,0.09117516130208969,-0.3120078444480896
