time,seconds_elapsed,z,y,x
1742766303004744400,0.055744384765625,-0.01175880990922451,0.006261184345930815,0.024281177669763565
1742766303007141600,0.0581416015625,-0.0009162708884105086,0.0325276181101799,0.01725643500685692
1742766303009539000,0.0605390625,-0.0021379655227065086,0.007788302376866341,-0.010231691412627697
1742766303011936300,0.062936279296875,-0.004123218823224306,-0.04703523963689804,-0.016645587980747223
1742766303014333400,0.06533349609375,0.005955760832875967,-0.09055810421705246,0.0010689827613532543
1742766303016730600,0.067730712890625,0.012216945178806782,-0.09437590092420578,0.028404397889971733
1742766303019128000,0.070128173828125,-0.00015271181473508477,-0.05986303091049194,0.049020491540431976
1742766303021525200,0.072525146484375,-0.011606098152697086,0.010995250195264816,0.050547610968351364
1742766303023922400,0.07492236328125,-0.012216945178806782,0.08093725889921188,0.043828289955854416
1742766303026319600,0.077319580078125,-0.006261184345930815,0.09727742522954941,0.027182703837752342
1742766303028717000,0.079717041015625,-0.006108472589403391,0.051463883370161057,-0.013591351918876171
1742766303031114200,0.0821142578125,-0.004581354558467865,-0.009315420873463154,-0.05100574716925621
1742766303033511400,0.084511474609375,0.0065666078589856625,-0.046577103435993195,-0.06551336497068405
1742766303035895300,0.086895263671875,0.004275931045413017,-0.046729814261198044,-0.03573456406593323
1742766303038306000,0.08930615234375,-0.0065666078589856625,-0.02870982140302658,0.034818295389413834
1742766303040703200,0.091703125,-0.016340164467692375,0.004581354558467865,0.08994726091623306
1742766303043087000,0.094087158203125,-0.0068720318377017975,0.05070032179355621,0.0925433561205864
1742766303045497900,0.096497802734375,0.00259610079228878,0.06368082761764526,0.03894151374697685
1742766303047895000,0.09889501953125,0.002748812548816204,0.01175880990922451,-0.028098974376916885
1742766303050279000,0.10127880859375,-0.014202198944985867,-0.03924693539738655,-0.06780404597520828
1742766303052689700,0.103689697265625,-0.020157959312200546,-0.04947862774133682,-0.045202698558568954
1742766303055086800,0.1060869140625,0.0030542362947016954,-0.030847785994410515,-0.003359660040587187
1742766303057484000,0.108484130859375,0.007788302376866341,0.003970507066696882,0.021837789565324783
1742766303059881500,0.110881591796875,-0.011911521665751934,0.031153209507465363,0.030389651656150818
1742766303062278700,0.113278564453125,-0.015576604753732681,0.038636088371276855,0.026877280324697495
1742766303064675800,0.11567578125,-0.0021379655227065086,0.013896775431931019,0.011300674639642239
1742766303067073000,0.118072998046875,0.0030542362947016954,-0.027029991149902344,-0.004581354558467865
1742766303069470500,0.120470458984375,0.0021379655227065086,-0.056961506605148315,0.008399149402976036
1742766303071867600,0.12286767578125,-0.0016798300202935934,-0.038483377546072006,0.014507622458040714
1742766303074264800,0.125264892578125,-0.0032069480512291193,0.002748812548816204,0.008704573847353458
1742766303076662000,0.127662109375,-0.0022906772792339325,0.0328330397605896,-0.010078979656100273
1742766303079059500,0.1300595703125,-0.007177455350756645,0.03390202298760414,-0.0065666078589856625
1742766303081456600,0.13245654296875,-0.009315420873463154,0.007635590620338917,0.00519220158457756
1742766303083853800,0.134853759765625,0.0006108472589403391,-0.01710372418165207,0.002748812548816204
1742766303086251300,0.137251220703125,0.01038440316915512,-0.03817795217037201,-0.009315420873463154
1742766303088648400,0.1396484375,0.007941014133393764,-0.04184303805232048,-0.016492875292897224
1742766303091045600,0.142045654296875,-0.005497625097632408,-0.02092151902616024,-0.004428642801940441
1742766303093442800,0.14444287109375,-0.009315420873463154,0.008704573847353458,0.024281177669763565
1742766303095840300,0.14684033203125,-0.004581354558467865,0.03374931216239929,0.028098974376916885
1742766303098237400,0.149237548828125,-0.0022906772792339325,0.03145863488316536,-0.0030542362947016954
1742766303100634600,0.151634521484375,-0.004581354558467865,0.012980503961443901,-0.030542362481355667
1742766303103031800,0.15403173828125,-0.008246437646448612,-0.0021379655227065086,-0.028251685202121735
1742766303105429200,0.15642919921875,-0.0007635590736754239,-0.004581354558467865,-0.02351761981844902
1742766303107826400,0.158826416015625,0.0029015245381742716,-0.007024743594229221,-0.016340164467692375
1742766303110223600,0.1612236328125,-0.0007635590736754239,-0.01954711228609085,-0.012827792204916477
1742766303112621000,0.16362109375,-0.011606098152697086,-0.013591351918876171,0.0015271181473508477
1742766303115018200,0.166018310546875,-0.016645587980747223,0.02244863659143448,0.026724567636847496
1742766303117415400,0.16841552734375,-0.005955760832875967,0.04871506989002228,0.023364907130599022
1742766303119812600,0.1708125,0.00259610079228878,0.03649812191724777,-0.005344913341104984
1742766303122210000,0.1732099609375,0.00030542362947016954,0.0004581354442052543,-0.03176405653357506
1742766303124607200,0.175607177734375,-0.008093725889921188,-0.02076880633831024,-0.03665083646774292
1742766303127004400,0.17800439453125,-0.010537114925682545,-0.012216945178806782,-0.017561858519911766
1742766303129401600,0.180401611328125,0.0015271181473508477,0.010231691412627697,0.0016798300202935934
1742766303131799000,0.182799072265625,0.00519220158457756,0.021532366052269936,0.0016798300202935934
1742766303134196200,0.1851962890625,-0.005803049076348543,0.01511846948415041,0.005344913341104984
1742766303136593400,0.187593505859375,-0.008093725889921188,-0.0035123717971146107,0.00992626789957285
1742766303138990800,0.189990966796875,0.0006108472589403391,-0.01832541823387146,0.0038177953101694584
1742766303141388000,0.192387939453125,-0.0018325417768210173,-0.021990500390529633,-0.017561858519911766
1742766303143785200,0.19478515625,-0.001985253533348441,-0.012064233422279358,-0.02229592576622963
1742766303146182700,0.1971826171875,-0.003359660040587187,0.005344913341104984,-0.010231691412627697
1742766303148579800,0.199579833984375,-0.003359660040587187,0.017714571207761765,0.008857285603880882
1742766303150977000,0.20197705078125,0.0016798300202935934,0.009009997360408306,0.012369656935334206
1742766303153374200,0.204374267578125,-0.0068720318377017975,-0.005955760832875967,-0.0007635590736754239
1742766303155771600,0.206771728515625,-0.012980503961443901,-0.008551862090826035,-0.011606098152697086
1742766303158168800,0.2091689453125,-0.003359660040587187,0.010231691412627697,-0.006719320081174374
1742766303160566000,0.21156591796875,-0.0009162708884105086,0.022601349279284477,0.01252236869186163
1742766303162963500,0.21396337890625,-0.0068720318377017975,0.0038177953101694584,0.025502873584628105
1742766303165347000,0.21634716796875,-0.01038440316915512,-0.018630841746926308,0.009773556143045425
1742766303167757800,0.2187578125,-0.008093725889921188,-0.008551862090826035,0.0015271181473508477
1742766303170155000,0.221155029296875,-0.0068720318377017975,0.012675080448389053,0.011147962883114815
1742766303172539000,0.223538818359375,-0.0021379655227065086,0.010231691412627697,-0.006719320081174374
1742766303174949600,0.22594970703125,0.0004581354442052543,-0.009468132629990578,-0.030695075169205666
1742766303177346800,0.228346923828125,-0.0007635590736754239,-0.01832541823387146,-0.015271181240677834
1742766303179744000,0.230743896484375,-0.0006108472589403391,-0.012216945178806782,0.012216945178806782
1742766303182141400,0.233141357421875,-0.0068720318377017975,0.0038177953101694584,0.03390202298760414
1742766303184538600,0.23553857421875,-0.011911521665751934,0.04230117425322533,0.0328330397605896
1742766303186922500,0.237922607421875,-0.0036650835536420345,0.06749862432479858,0.006719320081174374
1742766303189333200,0.240333251953125,-0.0012216945178806782,0.042759306728839874,-0.024433890357613564
1742766303191730400,0.24273046875,-0.001985253533348441,-0.010689826682209969,-0.03420744836330414
1742766303194114300,0.2451142578125,-0.0018325417768210173,-0.04062134400010109,-0.02244863659143448
1742766303196524800,0.24752490234375,0.0030542362947016954,-0.027029991149902344,-0.004581354558467865
1742766303198922200,0.249922119140625,0.004123218823224306,-0.0021379655227065086,0.0004581354442052543
1742766303201306000,0.25230615234375,-0.010537114925682545,0.008857285603880882,0.016034740954637527
1742766303203716600,0.254716552734375,-0.005650337319821119,0.014965757727622986,0.03268032893538475
1742766303206113800,0.25711376953125,0.006413896102458239,0.014049487188458443,0.014813045971095562
1742766303208511200,0.25951123046875,-0.0007635590736754239,-0.014507622458040714,-0.01038440316915512
1742766303210908400,0.261908447265625,-0.011606098152697086,-0.033443886786699295,-0.012980503961443901
1742766303213305600,0.2643056640625,-0.006719320081174374,-0.01588202826678753,-0.0009162708884105086
1742766303215689500,0.266689453125,0.0016798300202935934,0.002748812548816204,0.006413896102458239
1742766303218100200,0.269100341796875,0.0065666078589856625,-0.012064233422279358,0.00030542362947016954
1742766303220497400,0.271497314453125,0.0018325417768210173,-0.0331384651362896,-0.02244863659143448
1742766303222894600,0.27389453125,-0.014202198944985867,-0.013438640162348747,-0.00916270911693573
1742766303225292000,0.2762919921875,-0.009468132629990578,0.02870982140302658,0.03161134570837021
1742766303227689200,0.278689208984375,-0.0022906772792339325,0.05986303091049194,0.041384901851415634
1742766303230073000,0.281072998046875,-0.0024433890357613564,0.0587940476834774,-0.0016798300202935934
1742766303232483600,0.283483642578125,-0.0022906772792339325,0.021837789565324783,-0.05665608495473862
1742766303234881000,0.285881103515625,0.0018325417768210173,-0.03924693539738655,-0.042759306728839874
1742766303237265000,0.288264892578125,0.0009162708884105086,-0.07437065243721008,-0.0036650835536420345
1742766303239675400,0.29067529296875,-0.003970507066696882,-0.04840964451432228,0.019241688773036003
1742766303242072800,0.29307275390625,-0.0007635590736754239,0.016340164467692375,0.03512371703982353
1742766303244456700,0.295456787109375,0.006261184345930815,0.05497625470161438,0.04016320779919624
1742766303246867200,0.2978671875,0.006261184345930815,0.042759306728839874,0.007788302376866341
1742766303249264400,0.300264404296875,-0.003359660040587187,-0.013133215717971325,-0.055739812552928925
1742766303251648500,0.3026484375,-0.005497625097632408,-0.06154286116361618,-0.07513421028852463
1742766303254059000,0.30505908203125,0.008093725889921188,-0.06169557198882103,-0.03451287001371384
1742766303256456200,0.307456298828125,0.011606098152697086,-0.008399149402976036,0.023059483617544174
1742766303258853600,0.309853515625,-0.003359660040587187,0.042453885078430176,0.041232191026210785
1742766303261250800,0.312250732421875,-0.013285927474498749,0.05986303091049194,0.02107422985136509
1742766303263648000,0.31464794921875,-0.012216945178806782,0.05131116881966591,-0.00519220158457756
1742766303266045400,0.31704541015625,-0.0021379655227065086,0.021532366052269936,-0.01252236869186163
1742766303268442600,0.319442626953125,0.004123218823224306,-0.014507622458040714,-0.004428642801940441
1742766303270839800,0.32183984375,-0.0006108472589403391,-0.037108972668647766,-0.004581354558467865
1742766303273237000,0.324237060546875,-0.0030542362947016954,-0.027029991149902344,-0.010537114925682545
1742766303275634400,0.326634521484375,-0.0068720318377017975,-0.0009162708884105086,-0.0032069480512291193
1742766303278031600,0.329031494140625,-0.010689826682209969,0.021379653364419937,0.010078979656100273
1742766303280428800,0.3314287109375,-0.010842538438737392,0.037567105144262314,0.007788302376866341
1742766303282826000,0.333825927734375,0.00259610079228878,0.027793550863862038,-0.011300674639642239
1742766303285223400,0.336223388671875,0.007788302376866341,-0.009468132629990578,-0.020005248486995697
1742766303287620600,0.33862060546875,0.004428642801940441,-0.058183200657367706,-0.009468132629990578
1742766303290017800,0.341017822265625,-0.001374406274408102,-0.07574506103992462,0.007024743594229221
1742766303292415200,0.343415283203125,-0.009009997360408306,-0.037261683493852615,0.021685076877474785
1742766303294799000,0.345799072265625,-0.0021379655227065086,0.0325276181101799,0.01725643500685692
1742766303297209600,0.348209716796875,0.004734066314995289,0.08002099394798279,0.0068720318377017975
1742766303299606800,0.350606689453125,-0.001374406274408102,0.0725381150841713,-0.00030542362947016954
1742766303302004200,0.353004150390625,-0.007024743594229221,0.025197450071573257,0.0006108472589403391
1742766303304401400,0.3554013671875,-0.004428642801940441,-0.009620844386518002,-0.012827792204916477
1742766303306798600,0.357798583984375,0.0016798300202935934,-0.026724567636847496,-0.042759306728839874
1742766303309182500,0.360182373046875,-0.0007635590736754239,-0.025655584409832954,-0.028404397889971733
1742766303311593200,0.36259326171875,-0.001985253533348441,-0.004734066314995289,0.011147962883114815
1742766303313990400,0.364990478515625,-0.001985253533348441,0.016340164467692375,0.026724567636847496
1742766303316387600,0.3673876953125,-0.008246437646448612,0.03512371703982353,0.010231691412627697
1742766303318785000,0.369784912109375,-0.010842538438737392,0.04993676394224167,0.005497625097632408
1742766303321182200,0.37218212890625,-0.0010689827613532543,0.0525328628718853,0.017409147694706917
1742766303323579400,0.374579345703125,0.0015271181473508477,0.027793550863862038,0.0018325417768210173
1742766303325976600,0.3769765625,-0.0068720318377017975,-0.012064233422279358,-0.031916771084070206
1742766303328374000,0.3793740234375,-0.007941014133393764,-0.04062134400010109,-0.04153761267662048
1742766303330758000,0.3817578125,0.0006108472589403391,-0.03817795217037201,-0.030847785994410515
1742766303333168400,0.38416845703125,-0.0068720318377017975,-0.007177455350756645,0.00030542362947016954
1742766303335565600,0.386565673828125,-0.011911521665751934,0.028557108715176582,0.0328330397605896
1742766303337949700,0.38894970703125,-0.0010689827613532543,0.04749337583780289,0.023364907130599022
1742766303340360200,0.391360107421875,0.006413896102458239,0.020310672000050545,-0.009009997360408306
1742766303342757400,0.39375732421875,-0.004275931045413017,-0.03573456406593323,-0.015271181240677834
1742766303345154800,0.39615478515625,-0.011300674639642239,-0.05467082932591438,0.01435491070151329
1742766303347552000,0.398552001953125,0.008093725889921188,-0.029626091942191124,0.02886253222823143
1742766303349949200,0.40094921875,0.008857285603880882,0.007941014133393764,0.0004581354442052543
1742766303352346400,0.403346435546875,-0.008399149402976036,0.024128466844558716,-0.03527642786502838
1742766303354743800,0.405743896484375,-0.010842538438737392,0.016645587980747223,-0.03771981969475746
1742766303357141000,0.40814111328125,0.00030542362947016954,0.01038440316915512,-0.02214321307837963
1742766303359538200,0.4105380859375,0.010231691412627697,-0.009468132629990578,-0.0068720318377017975
1742766303361935600,0.412935546875,-0.005497625097632408,-0.028404397889971733,0.00030542362947016954
1742766303364332800,0.415332763671875,-0.01038440316915512,-0.010995250195264816,0.006261184345930815
1742766303366730000,0.41772998046875,0.0015271181473508477,0.02748812735080719,0.029167955741286278
1742766303369127200,0.420127197265625,0.00519220158457756,0.02886253222823143,0.029167955741286278
1742766303371524600,0.422524658203125,-0.004428642801940441,-0.004734066314995289,-0.006719320081174374
1742766303373921800,0.424921875,-0.015423892997205257,-0.01710372418165207,-0.03665083646774292
1742766303376319000,0.427319091796875,-0.008246437646448612,0.0029015245381742716,-0.04016320779919624
1742766303378716400,0.42971630859375,0.008857285603880882,0.0030542362947016954,-0.02229592576622963
1742766303381100300,0.432100341796875,0.005497625097632408,-0.0331384651362896,-0.020157959312200546
1742766303383510800,0.4345107421875,-0.012675080448389053,-0.05329642444849014,-0.02733541466295719
1742766303385908000,0.436907958984375,-0.012827792204916477,-0.01847812905907631,0.0015271181473508477
1742766303388305400,0.439305419921875,-0.004581354558467865,0.03497100621461868,0.038788799196481705
1742766303390702600,0.44170263671875,-0.0012216945178806782,0.07101099193096161,0.041384901851415634
1742766303393099800,0.444099853515625,0,0.06765133142471313,-0.002748812548816204
1742766303395497000,0.4464970703125,-0.0022906772792339325,0.019241688773036003,-0.04840964451432228
1742766303397894400,0.448894287109375,-0.0030542362947016954,-0.04550812020897865,-0.045202698558568954
1742766303400291600,0.45129150390625,-0.002748812548816204,-0.06688777357339859,-0.010689826682209969
1742766303402688800,0.453688720703125,-0.004275931045413017,-0.02229592576622963,0.021685076877474785
1742766303405086200,0.456086181640625,0.0015271181473508477,0.03390202298760414,0.02214321307837963
1742766303407483400,0.4584833984375,-0.0024433890357613564,0.05512896552681923,-0.007635590620338917
1742766303409880600,0.460880615234375,-0.014660334214568138,0.05390727147459984,-0.025502873584628105
1742766303412277800,0.46327783203125,-0.013285927474498749,0.037567105144262314,-0.010078979656100273
1742766303414675200,0.46567529296875,0.012827792204916477,-0.01817270554602146,0.00259610079228878
1742766303417059000,0.46805908203125,0.014507622458040714,-0.09177979826927185,-0.00015271181473508477
1742766303419469600,0.470469482421875,-0.010995250195264816,-0.1107160672545433,0.004428642801940441
1742766303421866800,0.47286669921875,-0.011300674639642239,-0.05726693198084831,0.016798298805952072
1742766303424251000,0.4752509765625,0.00519220158457756,0.021379653364419937,0.01954711228609085
1742766303426661400,0.477661376953125,0.0036650835536420345,0.0528382882475853,-0.01954711228609085
1742766303429058600,0.48005859375,-0.008399149402976036,0.024281177669763565,-0.055587101727724075
1742766303431442400,0.4824423828125,-0.015423892997205257,-0.013285927474498749,-0.03665083646774292
1742766303433853200,0.484853271484375,-0.011606098152697086,-0.016187451779842377,0.020616095513105392
1742766303436250400,0.48725048828125,-0.0006108472589403391,0.009773556143045425,0.07330167293548584
1742766303438634200,0.48963427734375,-0.001985253533348441,0.03237490355968475,0.05787777900695801
1742766303441045000,0.492044921875,-0.013285927474498749,0.03634541109204292,-0.0016798300202935934
1742766303443442200,0.494442138671875,-0.010842538438737392,0.024128466844558716,-0.04474456235766411
1742766303445826000,0.496825927734375,0.006413896102458239,-0.008093725889921188,-0.042606595903635025
1742766303448236500,0.499236572265625,0.005650337319821119,-0.051922015845775604,-0.005955760832875967
1742766303450634000,0.501634033203125,-0.00259610079228878,-0.08704573661088943,0.02489202655851841
1742766303453017900,0.504017822265625,-0.00259610079228878,-0.07345438003540039,0.028557108715176582
1742766303455428400,0.506428466796875,-0.0006108472589403391,-0.02473931387066841,0.01817270554602146
1742766303457825800,0.50882568359375,-0.0021379655227065086,0.03145863488316536,0.0065666078589856625
1742766303460209700,0.511209716796875,-0.0036650835536420345,0.06261184066534042,-0.006413896102458239
1742766303462620200,0.5136201171875,-0.0012216945178806782,0.05512896552681923,-0.007635590620338917
1742766303465017600,0.516017578125,-0.004581354558467865,0.020310672000050545,-0.016187451779842377
1742766303467401500,0.5184013671875,-0.005650337319821119,-0.011911521665751934,-0.03665083646774292
1742766303469812000,0.52081201171875,0.004123218823224306,-0.026877280324697495,-0.025961007922887802
1742766303472209200,0.523209228515625,0.004275931045413017,-0.02214321307837963,0.009773556143045425
1742766303474593000,0.525593017578125,0.0018325417768210173,-0.01969982497394085,0.021685076877474785
1742766303477003800,0.528003662109375,-0.008093725889921188,-0.009773556143045425,0.006261184345930815
1742766303479401000,0.53040087890625,-0.019241688773036003,0.02993151545524597,0.009009997360408306
1742766303481784800,0.532784912109375,-0.012216945178806782,0.06978929787874222,0.03542914241552353
1742766303484195600,0.535195556640625,-0.0036650835536420345,0.07986827939748764,0.0331384651362896
1742766303486592800,0.5375927734375,0.00015271181473508477,0.03405473381280899,-0.014965757727622986
1742766303488990000,0.539989990234375,-0.0032069480512291193,-0.03298575058579445,-0.06658235192298889
1742766303491387400,0.542387451171875,-0.0016798300202935934,-0.07895200699567795,-0.07055285573005676
1742766303493784600,0.54478466796875,0.0009162708884105086,-0.08047912269830704,-0.025197450071573257
1742766303496168400,0.54716845703125,-0.0004581354442052543,-0.037261683493852615,0.023975754156708717
1742766303498579000,0.549578857421875,-0.005650337319821119,0.021226942539215088,0.039857782423496246
1742766303500976400,0.551976318359375,-0.005955760832875967,0.05619794875383377,0.0198525357991457
1742766303503373600,0.55437353515625,-0.007177455350756645,0.05008947476744652,-0.0004581354442052543
1742766303505770800,0.556770751953125,-0.008246437646448612,0.012675080448389053,0.00519220158457756
1742766303508168200,0.559168212890625,-0.0004581354442052543,-0.032222192734479904,0.013285927474498749
1742766303510565400,0.5615654296875,0.001985253533348441,-0.051922015845775604,-0.015423892997205257
1742766303512962600,0.563962646484375,-0.0007635590736754239,-0.03420744836330414,-0.04871506989002228
1742766303515359700,0.56635986328125,-0.0010689827613532543,0.0032069480512291193,-0.05207473039627075
1742766303517743900,0.568743896484375,0.00015271181473508477,0.024128466844558716,-0.011453386396169662
1742766303520154400,0.571154296875,-0.0007635590736754239,0.013896775431931019,0.01832541823387146
1742766303522551600,0.573551513671875,-0.0018325417768210173,-0.01710372418165207,-0.0009162708884105086
1742766303524948700,0.57594873046875,-0.0030542362947016954,-0.032069481909275055,-0.018936265259981155
1742766303527346200,0.57834619140625,-0.0018325417768210173,-0.023364907130599022,0.008551862090826035
1742766303529743400,0.580743408203125,0.004275931045413017,-0.007330167107284069,0.04337015375494957
1742766303532127200,0.583127197265625,0.0030542362947016954,-0.007330167107284069,0.023059483617544174
1742766303534538000,0.5855380859375,-0.009315420873463154,-0.008246437646448612,-0.03420744836330414
1742766303536935200,0.58793505859375,-0.009620844386518002,-0.0006108472589403391,-0.06642963737249374
1742766303539319000,0.590319091796875,0.00030542362947016954,0.0018325417768210173,-0.03542914241552353
1742766303541729500,0.5927294921875,0.0030542362947016954,-0.010995250195264816,0.013438640162348747
1742766303544127000,0.595126953125,-0.0006108472589403391,-0.02229592576622963,0.024128466844558716
1742766303546510800,0.5975107421875,-0.005497625097632408,-0.013438640162348747,0.003970507066696882
1742766303548921300,0.59992138671875,-0.010689826682209969,0.020157959312200546,0.0029015245381742716
1742766303551318500,0.602318603515625,-0.014507622458040714,0.04978405311703682,0.027029991149902344
1742766303553702700,0.60470263671875,-0.006108472589403391,0.061084724962711334,0.02229592576622963
1742766303556113200,0.607113037109375,0.00259610079228878,0.03665083646774292,-0.01725643500685692
1742766303558510300,0.60951025390625,0.00519220158457756,-0.010537114925682545,-0.04504998400807381
1742766303560894200,0.611894287109375,0.004428642801940441,-0.05803048983216286,-0.028557108715176582
1742766303563305000,0.614304931640625,-0.003970507066696882,-0.06337540596723557,0.004734066314995289
1742766303565702100,0.6167021484375,-0.0016798300202935934,-0.036039989441633224,0.021685076877474785
1742766303568099300,0.619099365234375,-0.0006108472589403391,-0.008551862090826035,0.01710372418165207
1742766303570496800,0.621496826171875,-0.007024743594229221,0.017561858519911766,0.01252236869186163
1742766303572894000,0.62389404296875,-0.009620844386518002,0.04871506989002228,0.016187451779842377
1742766303575291100,0.626291015625,-0.0036650835536420345,0.06001574173569679,0.012675080448389053
1742766303577688600,0.6286884765625,0.006261184345930815,0.03161134570837021,-0.016034740954637527
1742766303580085800,0.631085693359375,0.0004581354442052543,-0.019394399598240852,-0.0331384651362896
1742766303582469600,0.6334697265625,-0.0065666078589856625,-0.05329642444849014,-0.011911521665751934
1742766303584880400,0.63588037109375,-0.00030542362947016954,-0.0459662564098835,0.02870982140302658
1742766303587277600,0.638277587890625,0.005497625097632408,-0.014813045971095562,0.036039989441633224
1742766303589674800,0.6406748046875,0.002748812548816204,0.012827792204916477,0.007635590620338917
1742766303592072000,0.643072021484375,-0.007024743594229221,0.023975754156708717,-0.010231691412627697
1742766303594469400,0.645469482421875,-0.016798298805952072,0.02626643143594265,0.01252236869186163
1742766303596853200,0.647853271484375,-0.009468132629990578,0.036039989441633224,0.04840964451432228
1742766303599263700,0.650263671875,0.00519220158457756,0.036192700266838074,0.051922015845775604
1742766303601661000,0.652660888671875,0.006413896102458239,0.014049487188458443,0.0004581354442052543
1742766303604058400,0.655058349609375,-0.007024743594229221,-0.015576604753732681,-0.06169557198882103
1742766303606455600,0.65745556640625,-0.010537114925682545,-0.03924693539738655,-0.06658235192298889
1742766303608852700,0.659852783203125,0.0006108472589403391,-0.03817795217037201,-0.010537114925682545
1742766303611236600,0.662236572265625,0.008093725889921188,-0.0198525357991457,0.04199574887752533
1742766303613647400,0.6646474609375,0.004123218823224306,0.006261184345930815,0.04107947647571564
1742766303616044500,0.66704443359375,-0.009468132629990578,0.02244863659143448,0.023212196305394173
1742766303618441700,0.669441650390625,-0.009468132629990578,0.03130592033267021,0.01725643500685692
1742766303620839200,0.671839111328125,-0.0022906772792339325,0.041384901851415634,0.007788302376866341
1742766303623236400,0.674236328125,0.00992626789957285,0.03405473381280899,0.009009997360408306
1742766303625633500,0.676633544921875,0.002748812548816204,0.010231691412627697,0.006413896102458239
1742766303628030700,0.67903076171875,-0.009315420873463154,-0.0035123717971146107,-0.007941014133393764
1742766303630428200,0.68142822265625,-0.0007635590736754239,-0.007024743594229221,-0.018783552572131157
1742766303632812000,0.68381201171875,0.011453386396169662,-0.019394399598240852,-0.018783552572131157
1742766303635222500,0.686222412109375,0.009315420873463154,-0.04688252881169319,-0.007024743594229221
1742766303637620000,0.688619873046875,-0.00030542362947016954,-0.07330167293548584,0.010689826682209969
1742766303640017200,0.69101708984375,-0.006413896102458239,-0.05726693198084831,0.02870982140302658
1742766303642414300,0.693414306640625,-0.00916270911693573,0.008704573847353458,0.04581354558467865
1742766303644811500,0.6958115234375,-0.0012216945178806782,0.0784938707947731,0.05100574716925621
1742766303647195600,0.698195556640625,0.007177455350756645,0.10109522193670273,0.02489202655851841
1742766303649606100,0.700606201171875,-0.0038177953101694584,0.06902574002742767,-0.03023693896830082
1742766303652003300,0.70300341796875,-0.013285927474498749,0.004275931045413017,-0.055587101727724075
1742766303654387200,0.70538720703125,-0.005344913341104984,-0.056808795779943466,-0.029778804630041122
1742766303656798000,0.7077978515625,0.005955760832875967,-0.0781884491443634,0.018936265259981155
1742766303659195100,0.710195068359375,0.005803049076348543,-0.05467082932591438,0.033443886786699295
1742766303661579000,0.7125791015625,0.0004581354442052543,-0.005955760832875967,0.003970507066696882
1742766303663989800,0.71498974609375,-0.0035123717971146107,0.03161134570837021,-0.01725643500685692
1742766303666387000,0.717386962890625,-0.0022906772792339325,0.041384901851415634,0.004275931045413017
1742766303668784000,0.7197841796875,0.00030542362947016954,0.0325276181101799,0.03634541109204292
1742766303671181300,0.722181396484375,0.0004581354442052543,0.006261184345930815,0.04459185153245926
1742766303673578800,0.724578857421875,0.005497625097632408,-0.014660334214568138,0.010995250195264816
1742766303675976000,0.726975830078125,0.007788302376866341,-0.026877280324697495,-0.030847785994410515
1742766303678373000,0.729373046875,0.0006108472589403391,-0.03924693539738655,-0.04046862944960594
1742766303680770300,0.731770263671875,-0.006719320081174374,-0.04077405482530594,-0.0261137206107378
1742766303683167700,0.734167724609375,-0.004275931045413017,-0.025808297097682953,-0.0068720318377017975
1742766303685565000,0.73656494140625,0.0004581354442052543,0.003970507066696882,0.00519220158457756
1742766303687962000,0.738962158203125,0.00030542362947016954,0.021379653364419937,0.01969982497394085
1742766303690359600,0.741359619140625,-0.004428642801940441,0.017561858519911766,0.03268032893538475
1742766303692756700,0.7437568359375,-0.004275931045413017,0.0012216945178806782,0.03374931216239929
1742766303695154000,0.74615380859375,-0.0007635590736754239,-0.008399149402976036,0.002748812548816204
1742766303697551400,0.74855126953125,-0.004428642801940441,-0.02076880633831024,-0.02351761981844902
1742766303699948500,0.750948486328125,-0.0030542362947016954,-0.030695075169205666,-0.025961007922887802
1742766303702345700,0.753345703125,0.0006108472589403391,-0.030695075169205666,-0.016492875292897224
1742766303704743000,0.755742919921875,0.0016798300202935934,-0.01588202826678753,-0.008093725889921188
1742766303707140400,0.758140380859375,-0.0032069480512291193,-0.0021379655227065086,-0.004428642801940441
1742766303709537500,0.76053759765625,-0.013133215717971325,0.023823043331503868,-0.0006108472589403391
1742766303711921400,0.76292138671875,-0.01817270554602146,0.0522274412214756,0.030542362481355667
1742766303714332200,0.765332275390625,-0.008399149402976036,0.07207997888326645,0.055739812552928925
1742766303716729300,0.767729248046875,0.006261184345930815,0.05757235363125801,0.02107422985136509
1742766303719126500,0.77012646484375,0.007635590620338917,0.004428642801940441,-0.03649812191724777
1742766303721523700,0.772523681640625,-0.0016798300202935934,-0.06184828653931618,-0.03451287001371384
1742766303723921200,0.774921142578125,0.0012216945178806782,-0.10308047384023666,-0.00259610079228878
1742766303726318300,0.777318359375,0.0035123717971146107,-0.09315420687198639,0.015271181240677834
1742766303728715500,0.779715576171875,-0.0004581354442052543,-0.032222192734479904,0.01572931744158268
1742766303731112700,0.78211279296875,-0.0022906772792339325,0.042453885078430176,0.01969982497394085
1742766303733496600,0.78449658203125,-0.00259610079228878,0.08735115826129913,0.020005248486995697
1742766303735907300,0.7869072265625,-0.007482878863811493,0.09116895496845245,0.0068720318377017975
1742766303738304500,0.789304443359375,-0.008551862090826035,0.05757235363125801,-0.012369656935334206
1742766303740701700,0.79170166015625,-0.004581354558467865,0.0029015245381742716,-0.024586603045463562
1742766303743099100,0.79409912109375,0.007941014133393764,-0.052990999072790146,-0.03573456406593323
1742766303745496300,0.796496337890625,0.007024743594229221,-0.08796200156211853,-0.01572931744158268
1742766303747880200,0.798880126953125,0.0035123717971146107,-0.09071081876754761,0.016492875292897224
1742766303750291000,0.801291015625,0.003359660040587187,-0.05207473039627075,0.016798298805952072
1742766303752688000,0.803688232421875,-0.005650337319821119,0.003970507066696882,0.0016798300202935934
1742766303755085300,0.806085205078125,-0.01588202826678753,0.06368082761764526,0.01038440316915512
1742766303757482500,0.808482421875,-0.008704573847353458,0.09834641218185425,0.03802524134516716
1742766303759880000,0.8108798828125,0.009773556143045425,0.08368607610464096,0.04153761267662048
1742766303762263800,0.813263916015625,0.014965757727622986,0.006719320081174374,-0.004275931045413017
1742766303764674300,0.81567431640625,-0.0029015245381742716,-0.072843536734581,-0.059710320085287094
1742766303767071500,0.818071533203125,-0.02351761981844902,-0.09559759497642517,-0.05390727147459984
1742766303769455600,0.82045556640625,-0.007788302376866341,-0.04474456235766411,0.007330167107284069
1742766303771866000,0.8228662109375,0.02229592576622963,0.03771981969475746,0.03634541109204292
1742766303774263300,0.82526318359375,0.019394399598240852,0.07269082218408585,0.00916270911693573
1742766303776660700,0.82766064453125,-0.010995250195264816,0.05268557742238045,-0.025502873584628105
1742766303779058000,0.830057861328125,-0.021685076877474785,0.014965757727622986,0.0004581354442052543
1742766303781455000,0.832455078125,-0.00916270911693573,0.0022906772792339325,0.05894676223397255
1742766303783839000,0.8348388671875,0.011453386396169662,0.017409147694706917,0.06368082761764526
1742766303786249700,0.837249755859375,0.011300674639642239,0.022906772792339325,-0.0018325417768210173
1742766303788647000,0.83964697265625,-0.0035123717971146107,0.016798298805952072,-0.055587101727724075
1742766303791030800,0.84203076171875,-0.0009162708884105086,0.0030542362947016954,-0.05085303261876106
1742766303793441300,0.844441162109375,0.005344913341104984,-0.008246437646448612,-0.017561858519911766
1742766303795838700,0.846838623046875,0.0030542362947016954,-0.024586603045463562,-0.003359660040587187
1742766303798236000,0.84923583984375,-0.0006108472589403391,-0.03573456406593323,-0.007024743594229221
1742766303800633000,0.851633056640625,-0.0018325417768210173,-0.029626091942191124,0.010995250195264816
1742766303803030500,0.854030517578125,0.005497625097632408,-0.00992626789957285,0.04214845970273018
1742766303805414400,0.856414306640625,0.0004581354442052543,0.016187451779842377,0.04352286830544472
1742766303807825000,0.858824951171875,-0.007177455350756645,0.03634541109204292,0.010231691412627697
1742766303810222300,0.861222412109375,-0.005955760832875967,0.03771981969475746,-0.024433890357613564
1742766303812619500,0.86361962890625,-0.0012216945178806782,0.029320668429136276,-0.0459662564098835
1742766303815016700,0.8660166015625,-0.0009162708884105086,-0.005650337319821119,-0.03542914241552353
1742766303817414000,0.868413818359375,0.004275931045413017,-0.04184303805232048,-0.012980503961443901
1742766303819811300,0.870811279296875,0.005650337319821119,-0.054365407675504684,-0.011911521665751934
1742766303822208500,0.87320849609375,-0.005497625097632408,-0.03833066672086716,-0.008246437646448612
1742766303824605700,0.875605712890625,-0.017867282032966614,0.00992626789957285,0.024281177669763565
1742766303826989600,0.877989501953125,-0.013285927474498749,0.07085828483104706,0.06047387793660164
1742766303829400300,0.880400390625,0.008399149402976036,0.10598199814558029,0.05115845799446106
1742766303831797500,0.882797607421875,0.024281177669763565,0.06291726976633072,-0.011147962883114815
1742766303834181400,0.885181396484375,0.007788302376866341,-0.045355409383773804,-0.06200099736452103
1742766303836592000,0.887592041015625,-0.021990500390529633,-0.12781979143619537,-0.06001574173569679
1742766303838989300,0.8899892578125,-0.01725643500685692,-0.10063708573579788,-0.02764083817601204
1742766303841386500,0.892386474609375,0.013896775431931019,0.0004581354442052543,0.007482878863811493
1742766303843783700,0.89478369140625,0.021990500390529633,0.06902574002742767,0.02107422985136509
1742766303846181000,0.89718115234375,0,0.06887302547693253,0.0032069480512291193
1742766303848578300,0.899578369140625,-0.021837789565324783,0.0325276181101799,-0.014965757727622986
1742766303850975500,0.9019755859375,-0.01038440316915512,-0.010995250195264816,0.003970507066696882
1742766303853373000,0.904373046875,0.015576604753732681,-0.04963133856654167,0.033443886786699295
1742766303855756800,0.9067568359375,0.010689826682209969,-0.07070557028055191,0.021379653364419937
1742766303858167300,0.909167236328125,-0.007788302376866341,-0.058183200657367706,-0.016645587980747223
1742766303860564500,0.911564453125,-0.004581354558467865,-0.010689826682209969,-0.05100574716925621
1742766303862948600,0.913948486328125,0.004886778071522713,0.0331384651362896,-0.04718795046210289
1742766303865359000,0.916359130859375,-0.005955760832875967,0.03894151374697685,-0.008857285603880882
1742766303867756300,0.91875634765625,-0.015576604753732681,0.021226942539215088,0.02076880633831024
1742766303870153500,0.921153564453125,-0.005650337319821119,0.008857285603880882,0.024281177669763565
1742766303872551000,0.923551025390625,0.009009997360408306,-0.005955760832875967,0.01588202826678753
1742766303874948000,0.925947998046875,0.004275931045413017,-0.029626091942191124,0.008551862090826035
1742766303877332000,0.92833203125,-0.007788302376866341,-0.04703523963689804,-0.005803049076348543
1742766303879742700,0.93074267578125,-0.007941014133393764,-0.032069481909275055,-0.0261137206107378
1742766303882140000,0.933139892578125,-0.003359660040587187,0.00916270911693573,-0.029320668429136276
1742766303884523800,0.935523681640625,0.007482878863811493,0.03405473381280899,-0.010078979656100273
1742766303886934300,0.937934326171875,0.007635590620338917,0.022754060104489326,0.010078979656100273
1742766303889331700,0.940331787109375,0.0006108472589403391,-0.009773556143045425,0.011147962883114815
1742766303891715600,0.942715576171875,-0.0006108472589403391,-0.04077405482530594,-0.014202198944985867
1742766303894126000,0.9451259765625,-0.0030542362947016954,-0.04810422286391258,-0.04291202127933502
1742766303896523300,0.947523193359375,-0.012827792204916477,-0.02214321307837963,-0.017561858519911766
1742766303898907400,0.949907470703125,-0.009468132629990578,0.031153209507465363,0.040010496973991394
1742766303901318000,0.95231787109375,0.00992626789957285,0.06490252166986465,0.04978405311703682
1742766303903715000,0.954715087890625,0.013438640162348747,0.04413371533155441,-0.013591351918876171
1742766303906112500,0.957112548828125,-0.010689826682209969,-0.0068720318377017975,-0.07116370648145676
1742766303908509700,0.959509765625,-0.016492875292897224,-0.050547610968351364,-0.06673506647348404
1742766303910907000,0.961906982421875,0.004428642801940441,-0.06184828653931618,-0.011911521665751934
1742766303913290800,0.964290771484375,0.010537114925682545,-0.04092676565051079,0.02870982140302658
1742766303915701500,0.966701416015625,-0.0030542362947016954,-0.007330167107284069,0.026571854948997498
1742766303918098700,0.9690986328125,-0.01435491070151329,0.03374931216239929,0.014965757727622986
1742766303920495900,0.971495849609375,-0.009620844386518002,0.062306419014930725,0.02351761981844902
1742766303922893000,0.97389306640625,-0.0035123717971146107,0.05619794875383377,0.03420744836330414
1742766303925290500,0.97629052734375,-0.003359660040587187,0.01511846948415041,0.008857285603880882
1742766303927674400,0.97867431640625,-0.0007635590736754239,-0.030542362481355667,-0.0390942245721817
1742766303930084900,0.9810849609375,-0.0018325417768210173,-0.051769305020570755,-0.05238015204668045
1742766303932482300,0.983482421875,-0.004275931045413017,-0.03833066672086716,-0.010537114925682545
1742766303934879500,0.98587939453125,0.0006108472589403391,-0.012216945178806782,0.01817270554602146
1742766303937276700,0.988276611328125,0.002748812548816204,0.015271181240677834,-0.005497625097632408
1742766303939674000,0.990674072265625,-0.0022906772792339325,0.027946261689066887,-0.0328330397605896
1742766303942058000,0.99305810546875,-0.003359660040587187,0.011453386396169662,0.0004581354442052543
1742766303944468500,0.995468505859375,-0.0029015245381742716,-0.01252236869186163,0.06123743951320648
1742766303946865700,0.99786572265625,0.0032069480512291193,-0.010078979656100273,0.0659715011715889
1742766303949249500,1.00024951171875,0.006413896102458239,0.004123218823224306,-0.005497625097632408
1742766303951660300,1.002660400390625,-0.0035123717971146107,0.005650337319821119,-0.056808795779943466
1742766303954057500,1.005057373046875,-0.008246437646448612,-0.007024743594229221,-0.04016320779919624
1742766303956455000,1.007454833984375,0.0016798300202935934,-0.007024743594229221,-0.013896775431931019
1742766303958852000,1.00985205078125,0.007788302376866341,-0.005650337319821119,-0.01511846948415041
1742766303961249300,1.012249267578125,0.0016798300202935934,-0.025655584409832954,-0.027182703837752342
1742766303963633200,1.014633056640625,-0.015271181240677834,-0.034665580838918686,-0.010537114925682545
1742766303966044000,1.0170439453125,-0.012827792204916477,-0.0050394898280501366,0.04337015375494957
1742766303968441000,1.019441162109375,0.004123218823224306,0.033596597611904144,0.072232685983181
1742766303970825000,1.021824951171875,0.006413896102458239,0.040010496973991394,0.029320668429136276
1742766303973235500,1.0242353515625,-0.007177455350756645,0.01175880990922451,-0.05085303261876106
1742766303975633000,1.0266328125,-0.021685076877474785,-0.014507622458040714,-0.058183200657367706
1742766303978016800,1.029016845703125,-0.016492875292897224,-0.016034740954637527,-0.0032069480512291193
1742766303980427300,1.03142724609375,0.005344913341104984,0.001374406274408102,0.03268032893538475
1742766303982824700,1.03382470703125,0.007635590620338917,0.019088976085186005,0.011300674639642239
1742766303985222000,1.036221923828125,-0.009468132629990578,0.009009997360408306,-0.016187451779842377
1742766303987619000,1.038619140625,-0.017867282032966614,-0.008551862090826035,-0.016340164467692375
1742766303990016300,1.041016357421875,-0.01175880990922451,-0.0036650835536420345,0.008704573847353458
1742766303992413700,1.04341357421875,0.0029015245381742716,0.01252236869186163,0.03512371703982353
1742766303994811000,1.045810791015625,0.016340164467692375,0.003970507066696882,0.03497100621461868
1742766303997208000,1.0482080078125,0.005497625097632408,-0.033291175961494446,-0.003359660040587187
1742766303999605200,1.050605224609375,-0.017714571207761765,-0.04443913698196411,-0.03558185324072838
1742766304002002700,1.053002685546875,-0.014202198944985867,-0.012216945178806782,-0.020005248486995697
1742766304004399900,1.05539990234375,0.002748812548816204,0.03130592033267021,0.01847812905907631
1742766304006797000,1.057797119140625,-0.0010689827613532543,0.04993676394224167,0.03771981969475746
1742766304009194500,1.060194580078125,-0.009468132629990578,0.03497100621461868,0.02214321307837963
1742766304011591700,1.062591796875,-0.007024743594229221,0.009009997360408306,-0.010231691412627697
1742766304013975600,1.0649755859375,-0.0032069480512291193,-0.014507622458040714,-0.021226942539215088
1742766304016386000,1.067385986328125,-0.004123218823224306,-0.037108972668647766,-0.003359660040587187
1742766304018783500,1.069783447265625,-0.0016798300202935934,-0.04840964451432228,0.015576604753732681
1742766304021167400,1.07216748046875,0.0007635590736754239,-0.034665580838918686,0.009773556143045425
1742766304023577900,1.074577880859375,-0.008093725889921188,-0.0010689827613532543,-0.001985253533348441
1742766304025975000,1.07697509765625,-0.013285927474498749,0.0325276181101799,-0.005344913341104984
1742766304028372500,1.07937255859375,-0.012064233422279358,0.05375456064939499,0.006719320081174374
1742766304030769700,1.081769775390625,-0.008399149402976036,0.05619794875383377,0.010231691412627697
1742766304033166800,1.084166748046875,-0.005803049076348543,0.025197450071573257,0.004123218823224306
1742766304035564300,1.086564208984375,-0.0030542362947016954,-0.034665580838918686,-0.0021379655227065086
1742766304037961500,1.08896142578125,-0.011300674639642239,-0.06581879407167435,0.0024433890357613564
1742766304040358700,1.091358642578125,-0.006413896102458239,-0.055892523378133774,0.016798298805952072
1742766304042755800,1.093755859375,0.0018325417768210173,-0.02092151902616024,0.020616095513105392
1742766304045153300,1.0961533203125,-0.004428642801940441,0.002748812548816204,0.011147962883114815
1742766304047550500,1.098550537109375,-0.008246437646448612,0.014049487188458443,-0.013896775431931019
1742766304049947600,1.10094775390625,-0.005803049076348543,0.006719320081174374,-0.029320668429136276
1742766304052344800,1.1033447265625,-0.0068720318377017975,-0.010842538438737392,-0.018783552572131157
1742766304054742300,1.1057421875,-0.01038440316915512,-0.008551862090826035,0.012216945178806782
1742766304057139500,1.108139404296875,-0.009315420873463154,0.017409147694706917,0.04459185153245926
1742766304059536600,1.11053662109375,-0.0009162708884105086,0.039857782423496246,0.042453885078430176
1742766304061934000,1.11293408203125,-0.004734066314995289,0.042606595903635025,-0.005344913341104984
1742766304064331300,1.115331298828125,-0.009468132629990578,0.00916270911693573,-0.03771981969475746
1742766304066728400,1.117728515625,-0.006719320081174374,-0.03833066672086716,-0.015271181240677834
1742766304069126000,1.1201259765625,0.004581354558467865,-0.06948387622833252,0.004734066314995289
1742766304071509800,1.122509765625,-0.00030542362947016954,-0.060779303312301636,0
1742766304073920300,1.124920166015625,-0.01175880990922451,-0.01710372418165207,-0.014049487188458443
1742766304076317400,1.1273173828125,-0.013133215717971325,0.03130592033267021,0.004123218823224306
1742766304078715000,1.12971484375,-0.007177455350756645,0.05238015204668045,0.03298575058579445
1742766304081112000,1.132112060546875,-0.013133215717971325,0.04352286830544472,0.030542362481355667
1742766304083509200,1.13450927734375,-0.017867282032966614,0.00992626789957285,0.014813045971095562
1742766304085906700,1.13690673828125,-0.008093725889921188,-0.01710372418165207,-0.020005248486995697
1742766304088303900,1.139303955078125,-0.0030542362947016954,-0.04306473210453987,-0.03680354729294777
1742766304090701000,1.141701171875,-0.0016798300202935934,-0.06306997686624527,-0.023823043331503868
1742766304093098200,1.14409814453125,-0.012675080448389053,-0.04840964451432228,0.0024433890357613564
1742766304095495700,1.14649560546875,-0.019088976085186005,0.007482878863811493,0.021990500390529633
1742766304097892900,1.148892822265625,-0.012064233422279358,0.05604523420333862,0.023364907130599022
1742766304100290000,1.1512900390625,-0.013438640162348747,0.06490252166986465,0.012675080448389053
1742766304102687200,1.153687255859375,-0.01695101149380207,0.040010496973991394,-0.005344913341104984
1742766304105084700,1.156084716796875,-0.004428642801940441,-0.003359660040587187,-0.00916270911693573
1742766304107481900,1.15848193359375,0.001985253533348441,-0.04459185153245926,0.007330167107284069
1742766304109879000,1.160879150390625,-0.008857285603880882,-0.04978405311703682,0.016798298805952072
1742766304112276500,1.1632763671875,-0.014049487188458443,-0.009773556143045425,0.002748812548816204
1742766304114673700,1.165673583984375,-0.005955760832875967,0.04031591862440109,-0.021990500390529633
1742766304117070800,1.16807080078125,0,0.046577103435993195,-0.021990500390529633
1742766304119468000,1.170468017578125,-0.004581354558467865,0.010231691412627697,-0.001985253533348441
1742766304121865500,1.172865478515625,-0.012675080448389053,-0.0261137206107378,0.019394399598240852
1742766304124262700,1.1752626953125,-0.010231691412627697,-0.02733541466295719,0.025350160896778107
1742766304126659800,1.177659912109375,0.0030542362947016954,-0.014660334214568138,0.013438640162348747
1742766304129043700,1.180043701171875,0.005497625097632408,-0.02076880633831024,0.0015271181473508477
1742766304131454500,1.182454345703125,-0.015271181240677834,-0.02733541466295719,0.006261184345930815
1742766304133851600,1.1848515625,-0.020157959312200546,-0.013591351918876171,0.0050394898280501366
1742766304136248800,1.187248779296875,-0.005803049076348543,0.015271181240677834,-0.009009997360408306
1742766304138646300,1.189646240234375,-0.0035123717971146107,0.03023693896830082,-0.016034740954637527
1742766304141043500,1.19204345703125,-0.018019994720816612,0.02489202655851841,0.016034740954637527
1742766304143427300,1.19442724609375,-0.017714571207761765,0.010995250195264816,0.04703523963689804
1742766304145837800,1.196837890625,-0.0030542362947016954,-0.004886778071522713,0.0325276181101799
1742766304148235300,1.1992353515625,0.0004581354442052543,-0.008399149402976036,-0.007941014133393764
1742766304150632400,1.201632568359375,-0.015423892997205257,-0.01710372418165207,-0.021226942539215088
1742766304153029600,1.204029541015625,-0.02504473738372326,-0.02229592576622963,-0.005650337319821119
1742766304155426800,1.2064267578125,-0.01175880990922451,-0.008551862090826035,-0.005650337319821119
1742766304157824300,1.20882421875,0.010231691412627697,-0.0032069480512291193,-0.013896775431931019
1742766304160221400,1.211221435546875,0.0004581354442052543,-0.01572931744158268,-0.014049487188458443
1742766304162618600,1.21361865234375,-0.016492875292897224,-0.0261137206107378,0.010995250195264816
1742766304165002500,1.21600244140625,-0.019088976085186005,0.013591351918876171,0.03268032893538475
1742766304167413200,1.218413330078125,-0.0010689827613532543,0.05619794875383377,0.03176405653357506
1742766304169810400,1.220810546875,0.0050394898280501366,0.05390727147459984,0.010231691412627697
1742766304172207600,1.22320751953125,-0.018019994720816612,0.020005248486995697,-0.0006108472589403391
1742766304174605000,1.22560498046875,-0.016645587980747223,0.00519220158457756,-0.012675080448389053
1742766304177002200,1.228002197265625,0.002748812548816204,0.0006108472589403391,-0.04016320779919624
1742766304179386000,1.23038623046875,0.00519220158457756,-0.00916270911693573,-0.05925218388438225
1742766304181796600,1.232796630859375,-0.006719320081174374,-0.02076880633831024,-0.017561858519911766
1742766304184194000,1.235194091796875,-0.0065666078589856625,-0.02870982140302658,0.04550812020897865
1742766304186591200,1.23759130859375,-0.005344913341104984,-0.007635590620338917,0.05650337040424347
1742766304188988400,1.239988525390625,-0.013133215717971325,0.02870982140302658,0.021990500390529633
1742766304191385900,1.2423857421875,-0.012064233422279358,0.04749337583780289,0.0007635590736754239
1742766304193783000,1.244782958984375,-0.009620844386518002,0.041232191026210785,0.014965757727622986
1742766304196180200,1.24718017578125,-0.01175880990922451,0.010078979656100273,0.01710372418165207
1742766304198577700,1.24957763671875,-0.0065666078589856625,-0.04581354558467865,-0.007024743594229221
1742766304200974800,1.251974853515625,-0.0015271181473508477,-0.0841442123055458,-0.04306473210453987
1742766304203372000,1.2543720703125,-0.0065666078589856625,-0.06933116167783737,-0.034665580838918686
1742766304205769200,1.256769287109375,-0.01038440316915512,-0.02351761981844902,0.01572931744158268
1742766304208166700,1.259166748046875,-0.012827792204916477,0.012216945178806782,0.05894676223397255
1742766304210563800,1.261563720703125,-0.008246437646448612,0.031153209507465363,0.041232191026210785
1742766304212961000,1.2639609375,-0.0021379655227065086,0.023975754156708717,-0.004275931045413017
1742766304215358200,1.266358154296875,-0.0068720318377017975,-0.012064233422279358,-0.012827792204916477
1742766304217755600,1.268755615234375,-0.01511846948415041,-0.033596597611904144,0.0038177953101694584
1742766304220152800,1.27115283203125,-0.005497625097632408,-0.010995250195264816,0.006261184345930815
1742766304222550000,1.273550048828125,0.0038177953101694584,0.027946261689066887,-0.02214321307837963
1742766304224947500,1.275947509765625,-0.004734066314995289,0.029167955741286278,-0.04474456235766411
1742766304227344600,1.2783447265625,-0.013133215717971325,0.0065666078589856625,-0.0198525357991457
1742766304229741800,1.280741943359375,-0.01038440316915512,-0.0012216945178806782,0.036192700266838074
1742766304232139000,1.283138916015625,0.0018325417768210173,0.006108472589403391,0.06016845628619194
1742766304234536400,1.285536376953125,0.0029015245381742716,0.010231691412627697,0.016034740954637527
1742766304236933600,1.28793359375,-0.011911521665751934,0.009009997360408306,-0.025808297097682953
1742766304239330800,1.290330810546875,-0.015576604753732681,0.018936265259981155,-0.026877280324697495
1742766304241728000,1.29272802734375,-0.010842538438737392,0.03390202298760414,-0.0029015245381742716
1742766304244125400,1.29512548828125,-0.007177455350756645,0.043828289955854416,0.005497625097632408
1742766304246522600,1.297522705078125,-0.010842538438737392,0.041384901851415634,-0.0029015245381742716
1742766304248919800,1.299919921875,-0.013133215717971325,0.01511846948415041,-0.0018325417768210173
1742766304251303700,1.3023037109375,-0.01038440316915512,-0.018630841746926308,0.027793550863862038
1742766304253714400,1.30471435546875,0.0021379655227065086,-0.04978405311703682,0.05024218559265137
1742766304256111600,1.307111572265625,0.0009162708884105086,-0.05100574716925621,0.034665580838918686
1742766304258495500,1.30949560546875,-0.012675080448389053,-0.0261137206107378,0.014507622458040714
1742766304260906200,1.31190625,-0.020463382825255394,0.016340164467692375,-0.0030542362947016954
1742766304263303400,1.314303466796875,-0.012064233422279358,0.041384901851415634,-0.01954711228609085
1742766304265700600,1.31670068359375,-0.0010689827613532543,0.024128466844558716,-0.029320668429136276
1742766304268097800,1.319097900390625,0.0018325417768210173,-0.029320668429136276,-0.030847785994410515
1742766304270495200,1.3214951171875,-0.002748812548816204,-0.08063183724880219,-0.013285927474498749
1742766304272879000,1.323879150390625,-0.010078979656100273,-0.05344913527369499,0.01435491070151329
1742766304275289600,1.32628955078125,-0.005650337319821119,0.02244863659143448,0.04703523963689804
1742766304277687000,1.32868701171875,0.00259610079228878,0.0659715011715889,0.06291726976633072
1742766304280071000,1.33107080078125,-0.0009162708884105086,0.042453885078430176,0.042453885078430176
1742766304282481400,1.3334814453125,-0.010537114925682545,0.00259610079228878,0.007635590620338917
1742766304284878600,1.335878662109375,-0.009315420873463154,-0.01817270554602146,-0.03542914241552353
1742766304287276000,1.338276123046875,0.002748812548816204,-0.019088976085186005,-0.07605048269033432
1742766304289673200,1.340673095703125,0.00030542362947016954,-0.012980503961443901,-0.06169557198882103
1742766304292070400,1.3430703125,-0.00916270911693573,-0.00992626789957285,0.01710372418165207
1742766304294467600,1.345467529296875,-0.00916270911693573,0.0010689827613532543,0.06963659077882767
1742766304296865000,1.347864990234375,-0.0068720318377017975,0.02229592576622963,0.05665608495473862
1742766304299262200,1.35026220703125,-0.003359660040587187,0.02886253222823143,0.009009997360408306
1742766304301659400,1.352659423828125,-0.005803049076348543,0.015271181240677834,-0.017409147694706917
1742766304304056800,1.355056884765625,-0.017867282032966614,-0.007330167107284069,-0.011606098152697086
1742766304306454000,1.3574541015625,-0.016645587980747223,-0.013438640162348747,-0.012827792204916477
1742766304308851200,1.359851318359375,-0.003359660040587187,0.006719320081174374,-0.04016320779919624
1742766304311248400,1.362248291015625,-0.0022906772792339325,0.024281177669763565,-0.054365407675504684
1742766304313645800,1.364645751953125,-0.010842538438737392,0.022754060104489326,-0.02092151902616024
1742766304316029700,1.36702978515625,-0.01175880990922451,0.014965757727622986,0.03145863488316536
1742766304318440200,1.369440185546875,-0.001985253533348441,0.012369656935334206,0.052990999072790146
1742766304320837600,1.371837646484375,0.00916270911693573,0.001374406274408102,0.036192700266838074
1742766304323221500,1.374221435546875,0.0018325417768210173,-0.025808297097682953,0.008551862090826035
1742766304325632000,1.376632080078125,-0.01175880990922451,-0.025808297097682953,-0.03787253051996231
1742766304328029200,1.379029296875,-0.013285927474498749,0.009315420873463154,-0.06398624926805496
1742766304330413000,1.3814130859375,-0.0012216945178806782,0.03924693539738655,-0.04107947647571564
1742766304332823800,1.38382373046875,0.002748812548816204,0.017867282032966614,-0.0018325417768210173
1742766304335221000,1.386220947265625,-0.00916270911693573,-0.018630841746926308,0.019394399598240852
1742766304337618400,1.388618408203125,-0.011453386396169662,-0.02244863659143448,0.02886253222823143
1742766304340015600,1.391015625,0.005344913341104984,-0.007177455350756645,0.01588202826678753
1742766304342412800,1.393412841796875,0.009009997360408306,-0.005650337319821119,-0.02107422985136509
1742766304344810000,1.39581005859375,-0.009315420873463154,-0.01695101149380207,-0.03542914241552353
1742766304347207400,1.39820751953125,-0.014202198944985867,-0.012216945178806782,-0.01511846948415041
1742766304349604600,1.4006044921875,-0.003359660040587187,0.017714571207761765,-0.006719320081174374
1742766304352001800,1.403001708984375,-0.008246437646448612,0.03008422814309597,0.0030542362947016954
1742766304354399200,1.405399169921875,-0.010537114925682545,0.012675080448389053,0.006413896102458239
1742766304356796400,1.40779638671875,-0.008093725889921188,0.00030542362947016954,-0.0032069480512291193
1742766304359193600,1.410193603515625,-0.0068720318377017975,-0.005955760832875967,-0.0032069480512291193
1742766304361590800,1.4125908203125,-0.004275931045413017,-0.02076880633831024,-0.014049487188458443
1742766304363988200,1.41498828125,-0.004275931045413017,-0.03436015918850899,-0.028404397889971733
1742766304366385400,1.417385498046875,-0.00916270911693573,-0.027029991149902344,-0.015271181240677834
1742766304368782600,1.419782470703125,-0.006719320081174374,-0.006108472589403391,0.01588202826678753
1742766304371179800,1.4221796875,-0.0007635590736754239,-0.0022906772792339325,0.00992626789957285
1742766304373577200,1.4245771484375,0.0016798300202935934,-0.011911521665751934,-0.0390942245721817
1742766304375974400,1.426974365234375,-0.003359660040587187,-0.013133215717971325,-0.05100574716925621
1742766304378371600,1.42937158203125,-0.012980503961443901,-0.0010689827613532543,0.0004581354442052543
1742766304380769000,1.43176904296875,-0.015423892997205257,0.031000498682260513,0.04474456235766411
1742766304383166200,1.434166259765625,-0.004734066314995289,0.06734590977430344,0.03420744836330414
1742766304385563400,1.4365634765625,0.005955760832875967,0.07146912813186646,-0.00519220158457756
1742766304387960600,1.438960693359375,0.0038177953101694584,0.018019994720816612,-0.03405473381280899
1742766304390358000,1.44135791015625,-0.007941014133393764,-0.04443913698196411,-0.03451287001371384
1742766304392755200,1.443755126953125,-0.017714571207761765,-0.03955236077308655,-0.020157959312200546
1742766304395152400,1.44615234375,-0.003359660040587187,0.017714571207761765,0.006413896102458239
1742766304397549600,1.448549560546875,0.007482878863811493,0.05390727147459984,0.023364907130599022
1742766304399947000,1.450947021484375,-0.004734066314995289,0.04016320779919624,0.004275931045413017
1742766304402344200,1.45334423828125,-0.016798298805952072,0.015271181240677834,-0.02214321307837963
1742766304404741400,1.455741455078125,-0.009468132629990578,0.0029015245381742716,-0.023364907130599022
1742766304407138800,1.458138916015625,0.0029015245381742716,-0.008399149402976036,0.002748812548816204
1742766304409536000,1.460535888671875,-0.004428642801940441,-0.0022906772792339325,0.020616095513105392
1742766304411933200,1.46293310546875,-0.010689826682209969,0.02626643143594265,0.007788302376866341
1742766304414330400,1.465330322265625,0.00015271181473508477,0.04031591862440109,-0.011300674639642239
1742766304416727800,1.467727783203125,0.004123218823224306,0.0004581354442052543,-0.01038440316915512
1742766304419125000,1.470125,-0.010231691412627697,-0.03955236077308655,-0.007024743594229221
1742766304421522200,1.472522216796875,-0.01511846948415041,-0.038636088371276855,0.01572931744158268
1742766304423906000,1.474906005859375,-0.0007635590736754239,-0.0010689827613532543,0.01954711228609085
1742766304426316800,1.47731689453125,0.008857285603880882,0.022906772792339325,0.0016798300202935934
1742766304428714000,1.4797138671875,-0.0009162708884105086,0.007788302376866341,-0.007941014133393764
1742766304431111200,1.482111083984375,-0.01175880990922451,-0.014660334214568138,-0.00916270911693573
1742766304433508600,1.484508544921875,-0.008093725889921188,-0.012216945178806782,-0.01038440316915512
1742766304435905800,1.48690576171875,-0.0009162708884105086,0.005344913341104984,-0.011453386396169662
1742766304438303000,1.489302978515625,0.0015271181473508477,0.012827792204916477,-0.006719320081174374
1742766304440700200,1.4917001953125,-0.0009162708884105086,0.007788302376866341,-0.005497625097632408
1742766304443097600,1.49409765625,0.0015271181473508477,0.004123218823224306,-0.01511846948415041
1742766304445481500,1.4964814453125,-0.0009162708884105086,0.0065666078589856625,-0.0032069480512291193
1742766304447892000,1.49889208984375,-0.0032069480512291193,0.016340164467692375,0.030389651656150818
1742766304450289400,1.501289306640625,-0.004581354558467865,0.033596597611904144,0.04230117425322533
1742766304452673300,1.50367333984375,-0.0035123717971146107,0.04749337583780289,0.013896775431931019
1742766304455083800,1.506083740234375,0.002748812548816204,0.016645587980747223,-0.023364907130599022
1742766304457481000,1.50848095703125,0.014049487188458443,-0.043981000781059265,-0.05482354015111923
1742766304459864800,1.51086474609375,0.0068720318377017975,-0.08521319180727005,-0.06810946762561798
1742766304462275600,1.513275634765625,-0.01511846948415041,-0.06184828653931618,-0.03695625811815262
1742766304464672800,1.5156728515625,-0.010537114925682545,0.016187451779842377,0.027946261689066887
1742766304467070200,1.5180703125,-0.0035123717971146107,0.07574506103992462,0.08551861345767975
1742766304469467400,1.52046728515625,-0.004734066314995289,0.07330167293548584,0.06887302547693253
1742766304471864600,1.522864501953125,-0.013133215717971325,0.023823043331503868,-0.004275931045413017
1742766304474248400,1.52524853515625,-0.008093725889921188,-0.024281177669763565,-0.0522274412214756
1742766304476659200,1.5276591796875,0.0006108472589403391,-0.046729814261198044,-0.04886778071522713
1742766304479056400,1.530056396484375,0.007941014133393764,-0.045355409383773804,-0.043981000781059265
1742766304481440300,1.532440185546875,-0.0007635590736754239,-0.025655584409832954,-0.0331384651362896
1742766304483850800,1.534850830078125,-0.005650337319821119,0.006413896102458239,0.006413896102458239
1742766304486248200,1.537248291015625,0.00030542362947016954,0.03497100621461868,0.04840964451432228
1742766304488632000,1.539632080078125,-0.004581354558467865,0.04352286830544472,0.054365407675504684
1742766304491042600,1.54204248046875,-0.013285927474498749,0.04367557913064957,0.023364907130599022
1742766304493440000,1.54443994140625,-0.008551862090826035,0.05512896552681923,-0.00992626789957285
1742766304495837200,1.546837158203125,0.009773556143045425,0.04062134400010109,-0.038788799196481705
1742766304498234400,1.549234375,0.018630841746926308,-0.022754060104489326,-0.056961506605148315
1742766304500631600,1.551631591796875,-0.0004581354442052543,-0.07666133344173431,-0.05375456064939499
1742766304503015400,1.554015380859375,-0.010231691412627697,-0.04947862774133682,-0.021379653364419937
1742766304505426200,1.55642626953125,0.007788302376866341,0.016340164467692375,0.03512371703982353
1742766304507823400,1.5588232421875,0.010078979656100273,0.05115845799446106,0.054365407675504684
1742766304510220800,1.561220703125,-0.013133215717971325,0.04474456235766411,0.03649812191724777
1742766304512618000,1.563617919921875,-0.015576604753732681,0.02993151545524597,0.01969982497394085
1742766304515015200,1.56601513671875,0.003970507066696882,0.00916270911693573,-0.0007635590736754239
1742766304517399000,1.56839892578125,0.007788302376866341,-0.021837789565324783,-0.02473931387066841
1742766304519809800,1.570809814453125,-0.0068720318377017975,-0.031916771084070206,-0.04871506989002228
1742766304522207000,1.57320703125,-0.014202198944985867,-0.009620844386518002,-0.025961007922887802
1742766304524590800,1.5755908203125,0.0016798300202935934,0.011453386396169662,0.01832541823387146
1742766304527001300,1.57800146484375,0.005344913341104984,0.0065666078589856625,0.01710372418165207
1742766304529398800,1.580398681640625,-0.017867282032966614,0.0050394898280501366,0.0029015245381742716
1742766304531782700,1.58278271484375,-0.021685076877474785,0.028557108715176582,0.024433890357613564
1742766304534193200,1.585193115234375,-0.0021379655227065086,0.04611896723508835,0.04489727318286896
1742766304536590600,1.587590576171875,0.013744063675403595,0.020157959312200546,0.029167955741286278
1742766304538974500,1.589974365234375,0.0030542362947016954,-0.033291175961494446,-0.01175880990922451
1742766304541385000,1.592385009765625,-0.0029015245381742716,-0.0594048947095871,-0.028557108715176582
1742766304543782100,1.5947822265625,0.0030542362947016954,-0.04428642615675926,-0.022601349279284477
1742766304546179600,1.5971796875,0.0065666078589856625,-0.005803049076348543,-0.007941014133393764
1742766304548576800,1.59957666015625,-0.0035123717971146107,0.04504998400807381,0.010231691412627697
1742766304550974000,1.601973876953125,-0.012216945178806782,0.07971556484699249,0.03665083646774292
1742766304553357800,1.60435791015625,-0.008551862090826035,0.08215895295143127,0.0522274412214756
1742766304555768600,1.6067685546875,0.00259610079228878,0.04871506989002228,0.03176405653357506
1742766304558165800,1.609165771484375,0.007788302376866341,-0.01817270554602146,-0.012827792204916477
1742766304560563000,1.61156298828125,0.0032069480512291193,-0.07666133344173431,-0.03833066672086716
1742766304562960400,1.61396044921875,0.003359660040587187,-0.0841442123055458,-0.02764083817601204
1742766304565357600,1.616357666015625,0.005650337319821119,-0.04443913698196411,0.0024433890357613564
1742766304567741400,1.618741455078125,0.00030542362947016954,0.017561858519911766,0.021990500390529633
1742766304570152000,1.62115185546875,-0.014660334214568138,0.06978929787874222,0.02107422985136509
1742766304572549400,1.62354931640625,-0.01725643500685692,0.08842013776302338,0.02244863659143448
1742766304574933200,1.625933349609375,0.0012216945178806782,0.0587940476834774,0.0198525357991457
1742766304577343700,1.62834375,0.013896775431931019,-0.007024743594229221,-0.005650337319821119
1742766304579741000,1.630740966796875,0.003359660040587187,-0.07055285573005676,-0.020310672000050545
1742766304582138400,1.633138427734375,-0.007635590620338917,-0.0844496339559555,-0.020463382825255394
1742766304584535600,1.63553564453125,-0.009315420873463154,-0.01588202826678753,-0.008093725889921188
1742766304586932700,1.6379326171875,0.0012216945178806782,0.06001574173569679,0.00916270911693573
1742766304589330200,1.640330078125,-0.0012216945178806782,0.07742489129304886,0.014049487188458443
1742766304591727400,1.642727294921875,-0.005955760832875967,0.0462716780602932,0.0007635590736754239
1742766304594124500,1.64512451171875,-0.004581354558467865,0.009009997360408306,-0.010231691412627697
1742766304596521700,1.647521728515625,0.0006108472589403391,-0.01710372418165207,0.0038177953101694584
1742766304598919200,1.649919189453125,0.004275931045413017,-0.02092151902616024,0.025350160896778107
1742766304601316400,1.65231640625,0.0029015245381742716,0.0015271181473508477,0.01954711228609085
1742766304603700200,1.6547001953125,0.0038177953101694584,0.026571854948997498,-0.0065666078589856625
1742766304606110700,1.65711083984375,0.0038177953101694584,0.020463382825255394,-0.030542362481355667
1742766304608508200,1.659508056640625,-0.0007635590736754239,-0.007024743594229221,-0.02107422985136509
1742766304610905300,1.6619052734375,-0.0032069480512291193,-0.010842538438737392,-0.004428642801940441
1742766304613302500,1.664302490234375,-0.0009162708884105086,0.010231691412627697,0.0016798300202935934
1742766304615700000,1.666699951171875,0.003970507066696882,0.025350160896778107,-0.0030542362947016954
1742766304618097200,1.66909716796875,0.003970507066696882,0.021532366052269936,-0.004275931045413017
1742766304620494300,1.671494384765625,-0.0007635590736754239,0.003970507066696882,0.0004581354442052543
1742766304622891500,1.6738916015625,-0.001985253533348441,-0.012064233422279358,-0.004428642801940441
1742766304625289000,1.6762890625,-0.0006108472589403391,-0.021990500390529633,-0.014049487188458443
1742766304627686100,1.67868603515625,-0.001985253533348441,-0.007177455350756645,-0.0068720318377017975
1742766304630083300,1.681083251953125,-0.004581354558467865,0.020157959312200546,0.010078979656100273
1742766304632480800,1.683480712890625,-0.010689826682209969,0.037414394319057465,0.017409147694706917
1742766304634878000,1.6858779296875,-0.009468132629990578,0.03130592033267021,0.005344913341104984
1742766304637275100,1.688275146484375,-0.0021379655227065086,0.01175880990922451,-0.03298575058579445
1742766304639672300,1.69067236328125,-0.0009162708884105086,-0.012980503961443901,-0.056961506605148315
1742766304642069800,1.69306982421875,-0.0006108472589403391,-0.03924693539738655,-0.043981000781059265
1742766304644467000,1.695467041015625,0.0030542362947016954,-0.03451287001371384,-0.0021379655227065086
1742766304646864100,1.697864013671875,0.005497625097632408,-0.0024433890357613564,0.04214845970273018
1742766304649261600,1.700261474609375,0.005344913341104984,0.01252236869186163,0.05543438717722893
1742766304651658800,1.70265869140625,-0.001985253533348441,0.001374406274408102,0.021837789565324783
1742766304654042600,1.705042724609375,-0.008246437646448612,0.0004581354442052543,-0.03298575058579445
1742766304656453000,1.707453125,-0.0010689827613532543,0.010537114925682545,-0.04963133856654167
1742766304658850600,1.7098505859375,0.006413896102458239,0.008093725889921188,-0.024586603045463562
1742766304661247700,1.712247802734375,0.0029015245381742716,-0.004581354558467865,0.0015271181473508477
1742766304663645000,1.71464501953125,-0.001985253533348441,0.007788302376866341,0.0029015245381742716
1742766304666042400,1.71704248046875,0.002748812548816204,0.025197450071573257,-0.0006108472589403391
1742766304668439600,1.719439453125,0.00519220158457756,0.019088976085186005,-0.013744063675403595
1742766304670836700,1.721836669921875,-0.0009162708884105086,0.007941014133393764,-0.025808297097682953
1742766304673234000,1.72423388671875,-0.0032069480512291193,-0.0021379655227065086,-0.007941014133393764
1742766304675631400,1.72663134765625,0.0016798300202935934,-0.004734066314995289,0.013438640162348747
1742766304678028500,1.729028564453125,0.005344913341104984,-0.007177455350756645,0.007482878863811493
1742766304680425700,1.73142578125,-0.0007635590736754239,0.0015271181473508477,-0.001985253533348441
1742766304682823000,1.733822998046875,-0.008246437646448612,0.016340164467692375,0.005344913341104984
1742766304685220400,1.736220458984375,-0.003359660040587187,0.022601349279284477,0.016034740954637527
1742766304687617500,1.738617431640625,-0.001985253533348441,0.0065666078589856625,0.00519220158457756
1742766304690014700,1.7410146484375,-0.005650337319821119,-0.01588202826678753,-0.011606098152697086
1742766304692412000,1.743411865234375,-0.005497625097632408,-0.01588202826678753,-0.004428642801940441
1742766304694809300,1.745809326171875,-0.0007635590736754239,-0.0022906772792339325,0.011147962883114815
1742766304697206500,1.74820654296875,-0.0009162708884105086,0.011453386396169662,0.00519220158457756
1742766304699603700,1.750603759765625,-0.003359660040587187,0.015271181240677834,-0.012675080448389053
1742766304702001200,1.753001220703125,-0.003359660040587187,0.007788302376866341,-0.004275931045413017
1742766304704398300,1.7553984375,-0.0006108472589403391,-0.011147962883114815,0.0325276181101799
1742766304706795500,1.75779541015625,0.001985253533348441,-0.016187451779842377,0.04443913698196411
1742766304709192700,1.760192626953125,-0.0006108472589403391,0.00015271181473508477,0.03145863488316536
1742766304711576800,1.762576904296875,0.0015271181473508477,0.014049487188458443,0.004123218823224306
1742766304713987300,1.7649873046875,-0.0010689827613532543,0.015423892997205257,-0.029320668429136276
1742766304716384500,1.767384521484375,-0.0035123717971146107,0.010537114925682545,-0.042453885078430176
1742766304718781700,1.76978173828125,-0.003359660040587187,0.01175880990922451,-0.030542362481355667
1742766304721179100,1.77217919921875,0.00259610079228878,0.026571854948997498,-0.010231691412627697
1742766304723576300,1.774576416015625,0.00030542362947016954,0.03512371703982353,0.01725643500685692
1742766304725973500,1.776973388671875,0.0015271181473508477,0.0325276181101799,0.028098974376916885
1742766304728371000,1.779370849609375,0.0029015245381742716,0.01511846948415041,0.029167955741286278
1742766304730768100,1.78176806640625,0.0030542362947016954,-0.013438640162348747,0.013438640162348747
1742766304733165300,1.784165283203125,0.0018325417768210173,-0.030695075169205666,-0.015271181240677834
1742766304735562500,1.7865625,-0.004428642801940441,-0.025655584409832954,-0.029626091942191124
1742766304737960000,1.7889599609375,-0.009468132629990578,0.005344913341104984,-0.017409147694706917
1742766304740357000,1.791357177734375,-0.004734066314995289,0.03634541109204292,0.01252236869186163
1742766304742754300,1.79375439453125,-0.003359660040587187,0.02870982140302658,0.03161134570837021
1742766304745151500,1.7961513671875,-0.010537114925682545,0.00015271181473508477,0.01588202826678753
1742766304747549000,1.798548828125,-0.01175880990922451,-0.009620844386518002,-0.016340164467692375
1742766304749946000,1.800946044921875,-0.001985253533348441,-0.007024743594229221,-0.02351761981844902
1742766304752343300,1.80334326171875,0.004123218823224306,-0.01832541823387146,-0.0068720318377017975
1742766304754740700,1.80574072265625,0.005497625097632408,-0.023212196305394173,-0.0021379655227065086
1742766304757138000,1.808137939453125,-0.001985253533348441,-0.013438640162348747,-0.0021379655227065086
1742766304759535000,1.81053515625,-0.004428642801940441,0.00015271181473508477,0.011147962883114815
1742766304761932300,1.812932373046875,-0.001985253533348441,0.007635590620338917,0.023059483617544174
1742766304764329700,1.815329833984375,-0.0032069480512291193,0.013896775431931019,0.01954711228609085
1742766304766727000,1.817726806640625,-0.003359660040587187,0.022754060104489326,0.0006108472589403391
1742766304769124000,1.8201240234375,0.002748812548816204,0.01038440316915512,-0.013896775431931019
1742766304771521500,1.822521484375,0.0016798300202935934,-0.01695101149380207,-0.014049487188458443
1742766304773918700,1.824918701171875,-0.0006108472589403391,-0.024433890357613564,-0.021226942539215088
1742766304776316000,1.82731591796875,-0.0007635590736754239,-0.010689826682209969,-0.029473381116986275
1742766304778713300,1.82971337890625,0.004123218823224306,-0.005803049076348543,-0.004428642801940441
1742766304781110500,1.832110595703125,0.007941014133393764,-0.014660334214568138,0.020616095513105392
1742766304783507700,1.8345078125,0.005497625097632408,-0.009773556143045425,0.020616095513105392
1742766304785905000,1.83690478515625,-0.004428642801940441,0.00259610079228878,0.01710372418165207
1742766304788302300,1.83930224609375,-0.008246437646448612,0.018936265259981155,0.007635590620338917
1742766304790686200,1.841686279296875,-0.003359660040587187,0.023975754156708717,-0.0030542362947016954
1742766304793096700,1.8440966796875,0.00030542362947016954,0.011606098152697086,-0.02214321307837963
1742766304795494000,1.846493896484375,0.0029015245381742716,-0.019394399598240852,-0.028404397889971733
1742766304797877800,1.848877685546875,0.004428642801940441,-0.04199574887752533,0.001374406274408102
1742766304800288500,1.85128857421875,-0.005497625097632408,-0.0198525357991457,0.022906772792339325
1742766304802685700,1.853685791015625,-0.015576604753732681,0.031000498682260513,0.03527642786502838
1742766304805083100,1.856083251953125,-0.009620844386518002,0.06856760382652283,0.03420744836330414
1742766304807480300,1.858480224609375,0.00015271181473508477,0.05757235363125801,0.017409147694706917
1742766304809877500,1.86087744140625,0.0065666078589856625,0.0029015245381742716,-0.005497625097632408
1742766304812274700,1.863274658203125,0.008093725889921188,-0.06306997686624527,-0.020310672000050545
1742766304814672100,1.865672119140625,-0.001374406274408102,-0.08689302206039429,-0.015576604753732681
1742766304817069300,1.8680693359375,-0.0029015245381742716,-0.04581354558467865,0.009620844386518002
1742766304819466500,1.870466552734375,0.0029015245381742716,0.02504473738372326,0.04352286830544472
1742766304821863700,1.87286376953125,0.00992626789957285,0.05741964280605316,0.06047387793660164
1742766304824261000,1.87526123046875,-0.0009162708884105086,0.038788799196481705,0.03161134570837021
1742766304826658300,1.877658203125,-0.009315420873463154,0.002748812548816204,-0.011453386396169662
1742766304829055500,1.880055419921875,-0.001985253533348441,-0.01572931744158268,-0.021226942539215088
1742766304831453000,1.882452880859375,0.007788302376866341,-0.014507622458040714,-0.00916270911693573
1742766304833850000,1.88485009765625,0.009009997360408306,0.00030542362947016954,0.00992626789957285
1742766304836247300,1.887247314453125,0.0016798300202935934,0.016340164467692375,0.023212196305394173
1742766304838644500,1.88964453125,-0.0021379655227065086,0.02870982140302658,0.030389651656150818
1742766304841042000,1.8920419921875,0.00030542362947016954,0.03374931216239929,0.03527642786502838
1742766304843439000,1.894439208984375,-0.007024743594229221,0.02870982140302658,0.024433890357613564
1742766304845836300,1.896836181640625,-0.007024743594229221,0.017561858519911766,0.01252236869186163
1742766304848220200,1.89922021484375,0.0029015245381742716,0.009009997360408306,0.011147962883114815
1742766304850631000,1.901630859375,0.005344913341104984,0.004123218823224306,0.0004581354442052543
1742766304853028000,1.904028076171875,0.0029015245381742716,-0.007024743594229221,-0.012827792204916477
1742766304855425300,1.90642529296875,-0.01175880990922451,0.00030542362947016954,-0.011453386396169662
1742766304857822700,1.90882275390625,-0.01817270554602146,0.039857782423496246,0.010231691412627697
1742766304860220000,1.911219970703125,-0.0024433890357613564,0.07742489129304886,0.029473381116986275
1742766304862617000,1.9136171875,0.0036650835536420345,0.0662769302725792,0.028251685202121735
1742766304865014300,1.91601416015625,-0.003359660040587187,0.022601349279284477,0.01252236869186163
1742766304867411700,1.91841162109375,0.004123218823224306,-0.012064233422279358,-0.008093725889921188
1742766304869795600,1.920795654296875,0.00916270911693573,-0.0331384651362896,-0.012980503961443901
1742766304872206000,1.9232060546875,-0.0029015245381742716,-0.032222192734479904,0.007330167107284069
1742766304874603300,1.925603271484375,-0.011606098152697086,0.004886778071522713,0.038636088371276855
1742766304876987400,1.9279873046875,0.00015271181473508477,0.05482354015111923,0.041232191026210785
1742766304879398000,1.93039794921875,0.004886778071522713,0.0650552362203598,0.007941014133393764
1742766304881795000,1.932795166015625,-0.0022906772792339325,0.016798298805952072,-0.03649812191724777
1742766304884179000,1.935178955078125,-0.005650337319821119,-0.030542362481355667,-0.04871506989002228
1742766304886589700,1.937589599609375,0.004275931045413017,-0.03695625811815262,-0.020157959312200546
1742766304888987000,1.93998681640625,0.012827792204916477,-0.02214321307837963,0.020463382825255394
1742766304891384000,1.942384033203125,0.01038440316915512,-0.007330167107284069,0.04092676565051079
1742766304893781500,1.944781494140625,0.0029015245381742716,0.0038177953101694584,0.03497100621461868
1742766304896178700,1.9471787109375,-0.008093725889921188,0.017561858519911766,0.023212196305394173
1742766304898576000,1.949575927734375,-0.001985253533348441,0.010231691412627697,0.011147962883114815
1742766304900973000,1.95197314453125,0.007788302376866341,-0.010689826682209969,-0.014049487188458443
1742766304903370500,1.95437060546875,0.0029015245381742716,-0.024433890357613564,-0.02367033064365387
1742766304905767700,1.956767578125,-0.006719320081174374,-0.027182703837752342,-0.003359660040587187
1742766304908164900,1.959164794921875,-0.0030542362947016954,-0.025961007922887802,0.010995250195264816
1742766304910562300,1.961562255859375,-0.001985253533348441,-0.0021379655227065086,-0.00916270911693573
1742766304912959500,1.96395947265625,-0.004581354558467865,0.016492875292897224,-0.016187451779842377
1742766304915356700,1.966356689453125,0.0015271181473508477,0.007788302376866341,-0.001985253533348441
1742766304917753900,1.96875390625,0.01038440316915512,-0.01710372418165207,0.002748812548816204
1742766304920151300,1.9711513671875,0.016492875292897224,-0.025655584409832954,0.0050394898280501366
1742766304922548500,1.973548583984375,0.00916270911693573,-0.01832541823387146,0.01572931744158268
1742766304924945700,1.975945556640625,-0.007941014133393764,-0.0012216945178806782,0.036192700266838074
1742766304927329500,1.97832958984375,-0.009468132629990578,0.04107947647571564,0.028098974376916885
1742766304929740300,1.980740234375,0.0035123717971146107,0.07895200699567795,-0.007482878863811493
1742766304932137500,1.983137451171875,0.007177455350756645,0.05421269312500954,-0.03145863488316536
1742766304934534700,1.98553466796875,-0.003359660040587187,-0.005803049076348543,-0.030695075169205666
1742766304936932000,1.98793212890625,-0.005497625097632408,-0.028404397889971733,0.0050394898280501366
1742766304939329300,1.990329345703125,0.009009997360408306,0.003970507066696882,0.02076880633831024
1742766304941726500,1.9927265625,0.02092151902616024,0.023059483617544174,-0.007788302376866341
1742766304944124000,1.9951240234375,0.007635590620338917,-0.0007635590736754239,-0.02107422985136509
1742766304946521000,1.99752099609375,-0.005497625097632408,-0.014813045971095562,0.007482878863811493
1742766304948918300,1.999918212890625,0.004275931045413017,0.001374406274408102,0.037414394319057465
1742766304951315500,2.0023154296875,0.007788302376866341,0.011300674639642239,0.04230117425322533
1742766304953713000,2.004712890625,-0.005650337319821119,0.002748812548816204,-0.0007635590736754239
1742766304956110000,2.007110107421875,-0.01572931744158268,0.015271181240677834,-0.03771981969475746
1742766304958507300,2.00950732421875,-0.005955760832875967,0.03527642786502838,-0.027946261689066887
1742766304960904700,2.01190478515625,0.00519220158457756,0.025197450071573257,0.008857285603880882
1742766304963302000,2.014302001953125,0.006719320081174374,-0.014660334214568138,0.020616095513105392
1742766304965699000,2.016698974609375,-0.004275931045413017,-0.034665580838918686,0.001374406274408102
1742766304968096300,2.01909619140625,-0.009315420873463154,-0.012216945178806782,-0.011606098152697086
1742766304970493700,2.02149365234375,-0.0021379655227065086,0.016492875292897224,0.011300674639642239
1742766304972891000,2.023890869140625,0.0065666078589856625,0.018783552572131157,0.03512371703982353
1742766304975288000,2.0262880859375,0.0065666078589856625,0.001374406274408102,0.02901524491608143
1742766304977672000,2.028671875,-0.0018325417768210173,-0.028404397889971733,0.0038177953101694584
1742766304980082700,2.031082763671875,-0.0018325417768210173,-0.03695625811815262,-0.021226942539215088
1742766304982480000,2.03347998046875,0.0016798300202935934,-0.01954711228609085,-0.018783552572131157
1742766304984877000,2.035876953125,0.01252236869186163,0.0018325417768210173,-0.007941014133393764
1742766304987274500,2.0382744140625,0.013896775431931019,-0.004428642801940441,-0.0032069480512291193
1742766304989671700,2.040671630859375,0.0030542362947016954,-0.025808297097682953,0.0038177953101694584
1742766304992068900,2.04306884765625,-0.0006108472589403391,-0.02092151902616024,0.01695101149380207
1742766304994466000,2.045466064453125,0.005344913341104984,0.011453386396169662,0.023212196305394173
1742766304996863500,2.047863525390625,0.0050394898280501366,0.03649812191724777,0.005344913341104984
1742766304999260700,2.0502607421875,0.00015271181473508477,0.04153761267662048,-0.011300674639642239
1742766305001657900,2.052657958984375,0.0038177953101694584,0.021685076877474785,-0.013744063675403595
1742766305004055000,2.055054931640625,0.009009997360408306,-0.005650337319821119,-0.0198525357991457
1742766305006439200,2.057439208984375,-0.0006108472589403391,-0.025655584409832954,-0.02244863659143448
1742766305008849700,2.059849609375,-0.005650337319821119,-0.01588202826678753,-0.008093725889921188
1742766305011246800,2.062246826171875,0.0004581354442052543,0.012675080448389053,0.01832541823387146
1742766305013644300,2.064644287109375,0.006413896102458239,0.021379653364419937,0.024433890357613564
1742766305016041500,2.06704150390625,0.0004581354442052543,0.002748812548816204,0.00992626789957285
1742766305018438700,2.069438720703125,-0.008093725889921188,-0.007330167107284069,0.00519220158457756
1742766305020822500,2.071822509765625,-0.008093725889921188,0.008857285603880882,0.008857285603880882
1742766305023233300,2.0742333984375,0.007635590620338917,0.01175880990922451,-0.013896775431931019
1742766305025630500,2.07663037109375,0.01252236869186163,-0.014202198944985867,-0.054518118500709534
1742766305028014300,2.079014404296875,0.0029015245381742716,-0.04046862944960594,-0.057114217430353165
1742766305030424800,2.0814248046875,0.004275931045413017,-0.03573456406593323,-0.008246437646448612
1742766305032822300,2.083822265625,0.006719320081174374,-0.012369656935334206,0.050394900143146515
1742766305035206100,2.0862060546875,-0.001985253533348441,0.018630841746926308,0.05772506445646286
1742766305037616600,2.08861669921875,-0.007177455350756645,0.05115845799446106,0.02107422985136509
1742766305040014000,2.09101416015625,0.0012216945178806782,0.047798797488212585,-0.016034740954637527
1742766305042411300,2.093411376953125,0.007482878863811493,0.008246437646448612,-0.05329642444849014
1742766305044808400,2.095808349609375,0.005344913341104984,-0.04291202127933502,-0.06184828653931618
1742766305047205600,2.09820556640625,0.0018325417768210173,-0.049173206090927124,-0.04291202127933502
1742766305049589800,2.10058984375,0.006719320081174374,-0.023212196305394173,0.00030542362947016954
1742766305052000300,2.103000244140625,0.0065666078589856625,0.00015271181473508477,0.027793550863862038
1742766305054397400,2.1053974609375,-0.0007635590736754239,0.010078979656100273,0.037414394319057465
1742766305056781300,2.10778125,0.0029015245381742716,0.006413896102458239,0.025502873584628105
1742766305059192000,2.110192138671875,0.009009997360408306,-0.014507622458040714,-0.0021379655227065086
1742766305061589200,2.11258935546875,0.006719320081174374,-0.05421269312500954,-0.03451287001371384
1742766305063986400,2.114986328125,0.0032069480512291193,-0.07528692483901978,-0.05619794875383377
1742766305066384000,2.1173837890625,0.0018325417768210173,-0.050547610968351364,-0.03573456406593323
1742766305068781000,2.119781005859375,0.005344913341104984,-0.010842538438737392,0.010995250195264816
1742766305071165000,2.1221650390625,0.009009997360408306,0.0015271181473508477,0.03023693896830082
1742766305073575400,2.124575439453125,-0.001985253533348441,0.003970507066696882,0.0016798300202935934
1742766305075972900,2.126972900390625,-0.021685076877474785,0.023823043331503868,-0.01252236869186163
1742766305078356700,2.129356689453125,-0.01572931744158268,0.04504998400807381,0.0007635590736754239
1742766305080767200,2.131767333984375,0.0050394898280501366,0.03894151374697685,0.0006108472589403391
1742766305083164700,2.13416455078125,0.016187451779842377,0.0032069480512291193,-0.02107422985136509
1742766305085561900,2.136561767578125,0.007788302376866341,-0.030389651656150818,-0.043981000781059265
1742766305087959000,2.138958984375,-0.0006108472589403391,-0.0393996499478817,-0.0261137206107378
1742766305090356200,2.141356201171875,-0.0030542362947016954,-0.009773556143045425,0.01710372418165207
1742766305092753700,2.143753662109375,-0.0009162708884105086,0.04489727318286896,0.041232191026210785
1742766305095150800,2.14615087890625,-0.0024433890357613564,0.07727217674255371,0.042606595903635025
1742766305097548000,2.148548095703125,-0.0024433890357613564,0.0587940476834774,0.011453386396169662
1742766305099932000,2.150931884765625,0.0015271181473508477,0.010537114925682545,-0.028098974376916885
1742766305102342700,2.1533427734375,0.0016798300202935934,-0.021685076877474785,-0.05467082932591438
1742766305104739800,2.15573974609375,0.0029015245381742716,-0.025502873584628105,-0.04749337583780289
1742766305107123700,2.158123779296875,0.0016798300202935934,-0.008246437646448612,-0.018783552572131157
1742766305109534500,2.160534423828125,-0.0032069480512291193,0.018783552572131157,0.025502873584628105
1742766305111931600,2.162931640625,0.002748812548816204,0.037414394319057465,0.04840964451432228
1742766305114328800,2.165328857421875,-0.0009162708884105086,0.02748812735080719,0.037567105144262314
1742766305116726300,2.167726318359375,-0.014049487188458443,-0.0024433890357613564,0.023059483617544174
1742766305119123500,2.17012353515625,-0.007941014133393764,-0.016034740954637527,0.008704573847353458
1742766305121520600,2.172520751953125,0.009009997360408306,-0.020616095513105392,-0.016492875292897224
1742766305123917800,2.174917724609375,0.0018325417768210173,-0.03573456406593323,-0.017714571207761765
1742766305126315300,2.177315185546875,-0.005344913341104984,-0.04963133856654167,0.0012216945178806782
1742766305128712400,2.17971240234375,-0.005344913341104984,-0.037261683493852615,0.012064233422279358
1742766305131109600,2.182109619140625,-0.004275931045413017,-0.006108472589403391,0.01710372418165207
1742766305133506800,2.1845068359375,-0.005650337319821119,0.008857285603880882,0.016034740954637527
1742766305135890700,2.186890625,-0.0032069480512291193,-0.007177455350756645,0.00519220158457756
1742766305138301400,2.189301513671875,0.0030542362947016954,-0.030695075169205666,-0.009315420873463154
1742766305140698600,2.19169873046875,0.01038440316915512,-0.04306473210453987,-0.017714571207761765
1742766305143082500,2.19408251953125,0.007941014133393764,-0.04688252881169319,-0.020157959312200546
1742766305145493200,2.1964931640625,-0.006719320081174374,-0.024586603045463562,-0.012827792204916477
1742766305147890400,2.198890380859375,-0.007024743594229221,0.0325276181101799,0.01969982497394085
1742766305150287600,2.20128759765625,0,0.0859767496585846,0.04749337583780289
1742766305152685000,2.20368505859375,0.0012216945178806782,0.06872031837701797,0.03420744836330414
1742766305155082200,2.206082275390625,-0.0068720318377017975,0.003970507066696882,0.003970507066696882
1742766305157479400,2.2084794921875,-0.006719320081174374,-0.03695625811815262,-0.029626091942191124
1742766305159876600,2.210876708984375,0.006719320081174374,-0.04046862944960594,-0.046424392610788345
1742766305162274000,2.213274169921875,0.00916270911693573,-0.03436015918850899,-0.02367033064365387
1742766305164658000,2.215657958984375,-0.005497625097632408,-0.013591351918876171,0.01588202826678753
1742766305167068400,2.218068359375,-0.009468132629990578,0.033596597611904144,0.04352286830544472
1742766305169465900,2.2204658203125,-0.0022906772792339325,0.05238015204668045,0.03176405653357506
1742766305171863000,2.222863037109375,-0.004581354558467865,0.022754060104489326,-0.004275931045413017
1742766305174260200,2.22526025390625,-0.010537114925682545,-0.01588202826678753,-0.029473381116986275
1742766305176657400,2.227657470703125,-0.001985253533348441,-0.02076880633831024,-0.02244863659143448
1742766305179041300,2.230041259765625,0.0030542362947016954,-0.02214321307837963,0.009773556143045425
1742766305181452000,2.2324521484375,-0.005344913341104984,-0.032222192734479904,0.024128466844558716
1742766305183849200,2.23484912109375,-0.016340164467692375,-0.02993151545524597,0.01817270554602146
1742766305186246400,2.237246337890625,-0.017867282032966614,0.0024433890357613564,0.01588202826678753
1742766305188643800,2.239643798828125,-0.0032069480512291193,0.012675080448389053,0.013591351918876171
1742766305191041000,2.242041015625,0.0030542362947016954,-0.01954711228609085,-0.004428642801940441
1742766305193438200,2.244438232421875,0.001985253533348441,-0.0594048947095871,-0.020310672000050545
1742766305195835600,2.246835693359375,0.0021379655227065086,-0.07055285573005676,-0.022754060104489326
1742766305198232800,2.24923291015625,0.0007635590736754239,-0.05207473039627075,0.0012216945178806782
1742766305200630000,2.251630126953125,-0.004275931045413017,-0.018630841746926308,0.026571854948997498
1742766305203027200,2.254027099609375,0.00030542362947016954,0.017714571207761765,0.01725643500685692
1742766305205424600,2.256424560546875,0.0015271181473508477,0.020310672000050545,-0.010231691412627697
1742766305207821800,2.25882177734375,-0.0032069480512291193,-0.010842538438737392,-0.02107422985136509
1742766305210219000,2.261218994140625,-0.006719320081174374,-0.027182703837752342,-0.005803049076348543
1742766305212616200,2.2636162109375,-0.0006108472589403391,-0.013438640162348747,0.010995250195264816
1742766305215013600,2.266013671875,0.011453386396169662,0.004123218823224306,0.00519220158457756
1742766305217410800,2.268410888671875,0.00519220158457756,0.005497625097632408,-0.011453386396169662
1742766305219808000,2.27080810546875,-0.009315420873463154,-0.0035123717971146107,-0.006719320081174374
1742766305222205400,2.273205322265625,-0.005650337319821119,0.002748812548816204,0.011147962883114815
1742766305224602600,2.2756025390625,0.0004581354442052543,0.008857285603880882,0.024281177669763565
1742766305226999800,2.277999755859375,-0.004428642801940441,0.003970507066696882,0.01588202826678753
1742766305229397000,2.28039697265625,-0.008093725889921188,-0.007177455350756645,-0.007941014133393764
1742766305231794400,2.28279443359375,-0.009315420873463154,-0.008399149402976036,-0.012827792204916477
1742766305234191600,2.285191650390625,-0.007941014133393764,-0.009773556143045425,0.007482878863811493
1742766305236588800,2.2875888671875,-0.006719320081174374,-0.014813045971095562,0.024128466844558716
1742766305238986200,2.289986328125,-0.016492875292897224,-0.004886778071522713,0.014660334214568138
1742766305241383400,2.292383544921875,-0.016798298805952072,0.023823043331503868,0.0029015245381742716
1742766305243780600,2.294780517578125,-0.007177455350756645,0.03390202298760414,0.004123218823224306
1742766305246177800,2.297177734375,0.0029015245381742716,-0.005955760832875967,0.011147962883114815
1742766305248575200,2.2995751953125,-0.00030542362947016954,-0.05467082932591438,0.013133215717971325
1742766305250972400,2.301972412109375,-0.00030542362947016954,-0.06826218217611313,0.013133215717971325
1742766305253369600,2.30436962890625,-0.0016798300202935934,-0.04718795046210289,0.01435491070151329
1742766305255766800,2.306766845703125,-0.008093725889921188,-0.0036650835536420345,0.013438640162348747
1742766305258150700,2.309150634765625,-0.004734066314995289,0.03634541109204292,0.005344913341104984
1742766305260561400,2.3115615234375,0.001374406274408102,0.03771981969475746,-0.011300674639642239
1742766305262958600,2.31395849609375,0.0004581354442052543,-0.0021379655227065086,-0.006719320081174374
1742766305265356000,2.31635595703125,-0.00916270911693573,-0.027182703837752342,0.0050394898280501366
1742766305267753200,2.318753173828125,-0.007941014133393764,-0.008551862090826035,0.012216945178806782
1742766305270150400,2.321150390625,0.00519220158457756,0.020310672000050545,0.0004581354442052543
1742766305272547600,2.323547607421875,0.003970507066696882,0.00916270911693573,-0.010231691412627697
1742766305274945000,2.325945068359375,-0.005650337319821119,-0.014660334214568138,-0.01038440316915512
1742766305277342200,2.32834228515625,-0.011606098152697086,-0.0198525357991457,0.006261184345930815
1742766305279739400,2.330739501953125,-0.00916270911693573,-0.0024433890357613564,0.021837789565324783
1742766305282136800,2.33313671875,-0.004428642801940441,0.017561858519911766,0.01954711228609085
1742766305284534000,2.335533935546875,-0.003359660040587187,0.015271181240677834,-0.007788302376866341
1742766305286931200,2.33793115234375,-0.007024743594229221,-0.0021379655227065086,-0.024586603045463562
1742766305289328400,2.340328369140625,-0.01038440316915512,-0.024586603045463562,-0.014049487188458443
1742766305291725800,2.342725830078125,-0.006719320081174374,-0.02214321307837963,-0.008093725889921188
1742766305294123000,2.345123046875,-0.0068720318377017975,0.00030542362947016954,-0.01038440316915512
1742766305296520200,2.347520263671875,-0.01175880990922451,0.010078979656100273,0.0016798300202935934
1742766305298917400,2.34991748046875,-0.006719320081174374,-0.008551862090826035,0.012216945178806782
1742766305301314800,2.352314697265625,-0.0004581354442052543,-0.03588727489113808,0.001374406274408102
1742766305303712000,2.3547119140625,-0.0004581354442052543,-0.04947862774133682,-0.0010689827613532543
1742766305306109200,2.357109130859375,-0.0029015245381742716,-0.0459662564098835,0.013285927474498749
1742766305308506600,2.359506591796875,-0.011606098152697086,-0.014813045971095562,0.012216945178806782
1742766305310903800,2.36190380859375,-0.009468132629990578,0.017714571207761765,-0.0030542362947016954
1742766305313301000,2.364301025390625,0.00015271181473508477,0.024128466844558716,-0.025655584409832954
1742766305315684900,2.366684814453125,0.0015271181473508477,-0.008093725889921188,-0.0390942245721817
1742766305318095600,2.369095703125,-0.0016798300202935934,-0.05070032179355621,-0.020157959312200546
1742766305320492800,2.371492919921875,-0.0029015245381742716,-0.05085303261876106,0.00015271181473508477
1742766305322890000,2.373889892578125,0.0006108472589403391,-0.01588202826678753,0.009773556143045425
1742766305325287200,2.376287109375,0.004123218823224306,0.007788302376866341,0.014813045971095562
1742766305327684600,2.3786845703125,-0.001985253533348441,-0.005955760832875967,0.008704573847353458
1742766305330068500,2.381068359375,-0.006719320081174374,-0.034665580838918686,-0.0021379655227065086
1742766305332479000,2.38347900390625,0.0006108472589403391,-0.04062134400010109,-0.02367033064365387
1742766305334876400,2.38587646484375,-0.0007635590736754239,-0.019394399598240852,-0.030695075169205666
1742766305337273600,2.388273681640625,-0.010537114925682545,0.006413896102458239,-0.005497625097632408
1742766305339670800,2.3906708984375,-0.013133215717971325,0.020005248486995697,0.013591351918876171
1742766305342068000,2.39306787109375,-0.0021379655227065086,0.01511846948415041,0.010078979656100273
1742766305344452000,2.3954521484375,0.0016798300202935934,-0.01572931744158268,-0.014049487188458443
1742766305346862600,2.397862548828125,-0.01038440316915512,-0.03680354729294777,-0.04749337583780289
1742766305349259800,2.400259765625,-0.022754060104489326,-0.01725643500685692,-0.028251685202121735
1742766305351643600,2.4026435546875,-0.013133215717971325,0.03497100621461868,0.01252236869186163
1742766305354054400,2.405054443359375,0.001374406274408102,0.05741964280605316,0.024586603045463562
1742766305356451600,2.40745166015625,0.0065666078589856625,0.009009997360408306,0.014813045971095562
1742766305358848800,2.409848876953125,0.003359660040587187,-0.06444438546895981,-0.010689826682209969
1742766305361246200,2.41224609375,-0.00015271181473508477,-0.08796200156211853,-0.020463382825255394
1742766305363643400,2.414643310546875,-0.004123218823224306,-0.04825693368911743,-0.009468132629990578
1742766305366040600,2.41704052734375,-0.005650337319821119,0.010231691412627697,0.006413896102458239
1742766305368437800,2.419437744140625,-0.004734066314995289,0.04749337583780289,0.011453386396169662
1742766305370835200,2.421835205078125,-0.004734066314995289,0.043828289955854416,0.0006108472589403391
1742766305373219000,2.424218994140625,-0.0021379655227065086,-0.0007635590736754239,-0.018630841746926308
1742766305375629600,2.426629638671875,-0.0018325417768210173,-0.04062134400010109,-0.03924693539738655
1742766305378026800,2.42902685546875,-0.0030542362947016954,-0.03680354729294777,-0.04031591862440109
1742766305380411000,2.431410888671875,-0.0021379655227065086,0.0029015245381742716,-0.016340164467692375
1742766305382821400,2.4338212890625,-0.0009162708884105086,0.03008422814309597,0.021990500390529633
1742766305385218600,2.436218505859375,-0.005803049076348543,0.033596597611904144,0.037567105144262314
1742766305387616000,2.438615966796875,-0.010689826682209969,0.02504473738372326,0.021990500390529633
1742766305390013200,2.44101318359375,-0.011911521665751934,0.009009997360408306,-0.004275931045413017
1742766305392410400,2.443410400390625,-0.004428642801940441,-0.013285927474498749,-0.027182703837752342
1742766305394794200,2.445794189453125,-0.0007635590736754239,-0.023059483617544174,-0.03787253051996231
1742766305397205000,2.448205078125,-0.005497625097632408,-0.023364907130599022,-0.017561858519911766
1742766305399602200,2.450602294921875,-0.006719320081174374,-0.014813045971095562,0.010995250195264816
1742766305401999400,2.452999267578125,-0.01175880990922451,0.008704573847353458,0.023059483617544174
1742766305404396500,2.455396484375,-0.01435491070151329,0.033596597611904144,0.028098974376916885
1742766305406794000,2.4577939453125,-0.005803049076348543,0.022601349279284477,0.013744063675403595
1742766305409177900,2.460177734375,0.0029015245381742716,-0.020616095513105392,-0.025961007922887802
1742766305411588400,2.46258837890625,0.001985253533348441,-0.06291726976633072,-0.05375456064939499
1742766305413985800,2.46498583984375,-0.0016798300202935934,-0.06184828653931618,-0.03573456406593323
1742766305416383000,2.467383056640625,-0.004275931045413017,-0.02229592576622963,0.019394399598240852
1742766305418780200,2.4697802734375,-0.005803049076348543,0.033596597611904144,0.04947862774133682
1742766305421177600,2.472177490234375,-0.007177455350756645,0.05986303091049194,0.03894151374697685
1742766305423561500,2.4745615234375,-0.004734066314995289,0.045202698558568954,-0.005344913341104984
1742766305425972000,2.476971923828125,-0.005803049076348543,0.007941014133393764,-0.03527642786502838
1742766305428369200,2.479369140625,-0.0068720318377017975,-0.012064233422279358,-0.03420744836330414
1742766305430766600,2.4817666015625,-0.0021379655227065086,0.006719320081174374,-0.03894151374697685
1742766305433163800,2.484163818359375,0.007330167107284069,0.028098974376916885,-0.04718795046210289
1742766305435561000,2.48656103515625,0.006261184345930815,0.019241688773036003,-0.03176405653357506
1742766305437944800,2.48894482421875,-0.001985253533348441,-0.005955760832875967,-0.0032069480512291193
1742766305440355600,2.49135546875,-0.006719320081174374,-0.013591351918876171,0.024128466844558716
1742766305442752800,2.493752685546875,-0.007941014133393764,0.004886778071522713,0.052990999072790146
1742766305445136600,2.49613671875,-0.0068720318377017975,0.0261137206107378,0.04474456235766411
1742766305447547400,2.49854736328125,0.00030542362947016954,0.021532366052269936,-0.007788302376866341
1742766305449944600,2.500944580078125,0.00030542362947016954,-0.014202198944985867,-0.06642963737249374
1742766305452328400,2.503328369140625,-0.004428642801940441,-0.046577103435993195,-0.08338065445423126
1742766305454739000,2.505739013671875,-0.01038440316915512,-0.04688252881169319,-0.047646086663007736
1742766305457136400,2.508136474609375,-0.005650337319821119,-0.0035123717971146107,0.014660334214568138
1742766305459533600,2.510533447265625,-0.003359660040587187,0.0397050715982914,0.0590994730591774
1742766305461930800,2.5129306640625,-0.005955760832875967,0.05726693198084831,0.04016320779919624
1742766305464328200,2.515328125,-0.005955760832875967,0.027793550863862038,-0.010231691412627697
1742766305466725400,2.517725341796875,0.0029015245381742716,-0.019394399598240852,-0.04031591862440109
1742766305469122600,2.52012255859375,0.0006108472589403391,-0.04062134400010109,-0.032069481909275055
1742766305471519700,2.522519775390625,-0.004275931045413017,-0.028404397889971733,-0.008093725889921188
1742766305473917200,2.524917236328125,-0.0007635590736754239,0.007788302376866341,0.0016798300202935934
1742766305476314400,2.527314453125,0.0038177953101694584,0.03894151374697685,0.004275931045413017
1742766305478711600,2.529711669921875,0.006261184345930815,0.04031591862440109,-0.0065666078589856625
1742766305481108700,2.532108642578125,0.00030542362947016954,0.0004581354442052543,-0.018630841746926308
1742766305483506200,2.534506103515625,-0.009315420873463154,-0.01954711228609085,-0.02351761981844902
1742766305485903400,2.5369033203125,-0.0021379655227065086,0.0016798300202935934,-0.02229592576622963
1742766305488287200,2.539287353515625,0.011147962883114815,0.023059483617544174,-0.017409147694706917
1742766305490698000,2.541697998046875,0.009009997360408306,0.005344913341104984,0.0016798300202935934
1742766305493095200,2.54409521484375,-0.0006108472589403391,-0.0198525357991457,0.026571854948997498
1742766305495479000,2.54647900390625,0.0030542362947016954,-0.010995250195264816,0.01817270554602146
1742766305497889500,2.5488896484375,0.00030542362947016954,0.017867282032966614,-0.005497625097632408
1742766305500287000,2.551286865234375,-0.012216945178806782,0.045202698558568954,-0.021990500390529633
1742766305502684200,2.55368408203125,-0.008551862090826035,0.05894676223397255,-0.01710372418165207
1742766305505081300,2.556081298828125,0.0012216945178806782,0.05024218559265137,-0.011147962883114815
1742766305507478500,2.558478515625,0.002748812548816204,0.004123218823224306,-0.016340164467692375
1742766305509876000,2.5608759765625,-0.011606098152697086,-0.02351761981844902,-0.0021379655227065086
1742766305512273200,2.563273193359375,-0.012980503961443901,0.008704573847353458,0.023059483617544174
1742766305514670300,2.56567041015625,-0.0022906772792339325,0.06368082761764526,0.030695075169205666
1742766305517067800,2.56806787109375,0.006108472589403391,0.05635065957903862,0.010231691412627697
1742766305519465000,2.57046484375,0.0065666078589856625,-0.019394399598240852,-0.020005248486995697
1742766305521862100,2.572862060546875,0.005803049076348543,-0.08292251825332642,-0.031153209507465363
1742766305524259300,2.57525927734375,0.004581354558467865,-0.08185353130102158,-0.010842538438737392
1742766305526656800,2.57765673828125,-0.004123218823224306,-0.029778804630041122,0.02886253222823143
1742766305529054000,2.580053955078125,-0.0009162708884105086,0.040010496973991394,0.03649812191724777
1742766305531437800,2.582437744140625,0.0010689827613532543,0.0787992998957634,0.0032069480512291193
1742766305533848300,2.584848388671875,-0.001374406274408102,0.05787777900695801,-0.03268032893538475
1742766305536245800,2.587245849609375,-0.003359660040587187,0.006719320081174374,-0.03649812191724777
1742766305538629600,2.589629638671875,-0.0030542362947016954,-0.012216945178806782,0.008704573847353458
1742766305541040000,2.5920400390625,0.005344913341104984,0.01511846948415041,0.037414394319057465
1742766305543437600,2.5944375,0.016187451779842377,0.03023693896830082,0.016034740954637527
1742766305545821400,2.596821533203125,0.010231691412627697,-0.005650337319821119,-0.017561858519911766
1742766305548232000,2.59923193359375,0.0030542362947016954,-0.03802524134516716,-0.02733541466295719
1742766305550629000,2.601629150390625,0.0007635590736754239,-0.031000498682260513,0.01572931744158268
1742766305553026600,2.604026611328125,-0.0006108472589403391,0.006108472589403391,0.06368082761764526
1742766305555423700,2.606423828125,-0.0068720318377017975,0.038483377546072006,0.06383354216814041
1742766305557821000,2.608821044921875,-0.008399149402976036,0.042453885078430176,0.018630841746926308
1742766305560204800,2.611204833984375,0.00030542362947016954,0.0030542362947016954,-0.03771981969475746
1742766305562615600,2.613615478515625,0.014202198944985867,-0.06398624926805496,-0.0525328628718853
1742766305565012700,2.6160126953125,0.008399149402976036,-0.10277505218982697,-0.02886253222823143
1742766305567396600,2.618396728515625,-0.003970507066696882,-0.062153708189725876,0.010689826682209969
1742766305569807400,2.620807373046875,-0.003359660040587187,0.02993151545524597,0.038788799196481705
1742766305572204500,2.62320458984375,0.0024433890357613564,0.07727217674255371,0.042606595903635025
1742766305574588400,2.62558837890625,0.001374406274408102,0.04749337583780289,0.024586603045463562
1742766305576999000,2.6279990234375,-0.001985253533348441,-0.007177455350756645,-0.004428642801940441
1742766305579396400,2.630396240234375,0.0007635590736754239,-0.0456608310341835,-0.017714571207761765
1742766305581793500,2.63279345703125,0.009315420873463154,-0.04184303805232048,-0.007024743594229221
1742766305584190700,2.635190673828125,0.0065666078589856625,-0.007177455350756645,0.006261184345930815
1742766305586588000,2.637587890625,0.003970507066696882,0.02764083817601204,0.014813045971095562
1742766305588985300,2.6399853515625,0.001374406274408102,0.03634541109204292,0.010231691412627697
1742766305591382500,2.642382568359375,0.002748812548816204,0.014049487188458443,-0.006719320081174374
1742766305593779700,2.64477978515625,0.004123218823224306,-0.011911521665751934,-0.020005248486995697
1742766305596163600,2.64716357421875,0.0065666078589856625,-0.023212196305394173,-0.018783552572131157
1742766305598574300,2.64957421875,0.012827792204916477,-0.01954711228609085,0.00030542362947016954
1742766305600971500,2.651971435546875,0.006719320081174374,-0.006108472589403391,0.0325276181101799
1742766305603368700,2.65436865234375,0.0018325417768210173,0.00259610079228878,0.04688252881169319
1742766305605766100,2.65676611328125,0.0029015245381742716,0.008857285603880882,0.025502873584628105
1742766305608163300,2.659163330078125,0.002748812548816204,0.004275931045413017,-0.0198525357991457
1742766305610560500,2.661560546875,0.003970507066696882,-0.0068720318377017975,-0.04734066128730774
1742766305612958000,2.6639580078125,0.0004581354442052543,-0.023212196305394173,-0.028404397889971733
1742766305615355100,2.666355224609375,-0.0006108472589403391,-0.023364907130599022,0.008551862090826035
1742766305617752300,2.66875244140625,0.0030542362947016954,-0.0012216945178806782,0.04688252881169319
1742766305620149500,2.6711494140625,0.0016798300202935934,0.016187451779842377,0.04703523963689804
1742766305622547000,2.673546875,-0.007024743594229221,0.022601349279284477,0.0006108472589403391
1742766305624944000,2.675944091796875,-0.010842538438737392,0.016645587980747223,-0.04367557913064957
1742766305627341300,2.67834130859375,0.002748812548816204,-0.0018325417768210173,-0.04734066128730774
1742766305629738800,2.68073876953125,0.012827792204916477,-0.029320668429136276,-0.017714571207761765
1742766305632122600,2.68312255859375,0.0068720318377017975,-0.04214845970273018,0.016798298805952072
1742766305634533000,2.685533203125,-0.0016798300202935934,-0.02489202655851841,0.04321744292974472
1742766305636930300,2.687930419921875,0.004275931045413017,0.00259610079228878,0.050547610968351364
1742766305639314200,2.690314208984375,0.01511846948415041,-0.0009162708884105086,0.021837789565324783
1742766305641725000,2.692724853515625,0.011453386396169662,-0.028098974376916885,-0.025961007922887802
1742766305644122000,2.6951220703125,-0.0006108472589403391,-0.04306473210453987,-0.04046862944960594
1742766305646519600,2.69751953125,-0.0030542362947016954,-0.013438640162348747,0.0015271181473508477
1742766305648916700,2.699916748046875,0.00519220158457756,0.043828289955854416,0.03405473381280899
1742766305651314000,2.70231396484375,0.007330167107284069,0.0662769302725792,0.02229592576622963
1742766305653697800,2.70469775390625,-0.0012216945178806782,0.04153761267662048,-0.025655584409832954
1742766305656108500,2.707108642578125,-0.0035123717971146107,0.005650337319821119,-0.055587101727724075
1742766305658505700,2.709505615234375,0.0065666078589856625,-0.015576604753732681,-0.03436015918850899
1742766305660889600,2.7118896484375,0.00916270911693573,-0.012064233422279358,0.010995250195264816
1742766305663300000,2.714300048828125,-0.001985253533348441,0.012369656935334206,0.05421269312500954
1742766305665697500,2.716697509765625,-0.008246437646448612,0.0459662564098835,0.0662769302725792
1742766305668081400,2.719081298828125,0.00259610079228878,0.04749337583780289,0.03649812191724777
1742766305670492000,2.721491943359375,0.003970507066696882,0.0018325417768210173,-0.028251685202121735
1742766305672889300,2.723889404296875,-0.007941014133393764,-0.046729814261198044,-0.06306997686624527
1742766305675273200,2.726273193359375,-0.011606098152697086,-0.04321744292974472,-0.02733541466295719
1742766305677683700,2.72868359375,-0.0007635590736754239,0.011300674639642239,0.03512371703982353
1742766305680081000,2.731080810546875,0.008704573847353458,0.05238015204668045,0.05085303261876106
1742766305682464800,2.73346484375,-0.0009162708884105086,0.03130592033267021,0.024433890357613564
1742766305684875500,2.73587548828125,-0.004428642801940441,-0.023212196305394173,-0.02473931387066841
1742766305687272700,2.738272705078125,0.005650337319821119,-0.06658235192298889,-0.04184303805232048
1742766305689656600,2.740656494140625,0.004581354558467865,-0.06322269141674042,-0.0024433890357613564
1742766305692067300,2.7430673828125,-0.0065666078589856625,-0.010078979656100273,0.06001574173569679
1742766305694464500,2.745464599609375,-0.0021379655227065086,0.06581879407167435,0.08078455179929733
1742766305696848400,2.747848388671875,0.005955760832875967,0.10353861004114151,0.046424392610788345
1742766305699259100,2.750259033203125,0.0022906772792339325,0.06765133142471313,-0.013438640162348747
1742766305701656300,2.75265625,-0.0010689827613532543,-0.0004581354442052543,-0.06398624926805496
1742766305704040200,2.755040283203125,0.0004581354442052543,-0.0328330397605896,-0.07971556484699249
1742766305706450700,2.75745068359375,0.007635590620338917,-0.015423892997205257,-0.05100574716925621
1742766305708848000,2.75984814453125,0.008857285603880882,0.026571854948997498,0.007788302376866341
1742766305711232000,2.76223193359375,0.0015271181473508477,0.04840964451432228,0.07116370648145676
1742766305713642500,2.764642578125,-0.004581354558467865,0.054518118500709534,0.08903098851442337
1742766305716039700,2.767039794921875,-0.0009162708884105086,0.03237490355968475,0.04718795046210289
1742766305718423800,2.769423828125,-0.0007635590736754239,-0.010689826682209969,-0.031916771084070206
1742766305720834300,2.771834228515625,0.005344913341104984,-0.04886778071522713,-0.08582404255867004
1742766305723231500,2.7742314453125,0.0004581354442052543,-0.046577103435993195,-0.06795676052570343
1742766305725615400,2.776615478515625,-0.0032069480512291193,-0.007177455350756645,0.008704573847353458
1742766305728026000,2.779026123046875,0.005344913341104984,0.02870982140302658,0.05543438717722893
1742766305730423300,2.78142333984375,0.00030542362947016954,0.04734066128730774,0.041232191026210785
1742766305732807200,2.78380712890625,-0.013285927474498749,0.043828289955854416,0.0018325417768210173
1742766305735218000,2.786218017578125,-0.013285927474498749,0.03405473381280899,-0.026877280324697495
1742766305737615000,2.788614990234375,0.00030542362947016954,0.015423892997205257,-0.02092151902616024
1742766305739999000,2.7909990234375,0.009009997360408306,-0.009468132629990578,-0.001985253533348441
1742766305742409500,2.793409423828125,0.00916270911693573,-0.033291175961494446,0.007330167107284069
1742766305744807000,2.795806884765625,-0.0016798300202935934,-0.03588727489113808,0.01695101149380207
1742766305747190800,2.798190673828125,-0.004428642801940441,-0.006108472589403391,0.012369656935334206
1742766305749601300,2.800601318359375,0.006261184345930815,0.027793550863862038,-0.007788302376866341
1742766305751998700,2.802998779296875,0.00015271181473508477,0.025350160896778107,-0.014965757727622986
1742766305754382600,2.805382568359375,-0.0007635590736754239,0.0004581354442052543,-0.012675080448389053
1742766305756793000,2.80779296875,0.004123218823224306,-0.007024743594229221,-0.00916270911693573
1742766305759190300,2.810190185546875,0.011300674639642239,0.005497625097632408,-0.001985253533348441
1742766305761587700,2.812587646484375,0.010231691412627697,0.005344913341104984,0.014813045971095562
1742766305763985000,2.81498486328125,0.0016798300202935934,-0.009620844386518002,0.00030542362947016954
1742766305766382000,2.817382080078125,0.0030542362947016954,-0.021990500390529633,-0.0021379655227065086
1742766305768779300,2.819779296875,0.017714571207761765,-0.023212196305394173,0.0038177953101694584
1742766305771176700,2.8221767578125,0.016492875292897224,-0.028098974376916885,0.001374406274408102
1742766305773574000,2.824573974609375,-0.0030542362947016954,-0.014660334214568138,0.00030542362947016954
1742766305775971000,2.82697119140625,-0.010689826682209969,0.02886253222823143,0.004123218823224306
1742766305778368500,2.829368408203125,0,0.06001574173569679,0.011453386396169662
1742766305780765700,2.831765625,0.006261184345930815,0.03649812191724777,-0.0029015245381742716
1742766305783163000,2.834162841796875,-0.0032069480512291193,-0.010842538438737392,-0.016340164467692375
1742766305785560000,2.83656005859375,-0.005497625097632408,-0.01710372418165207,-0.0068720318377017975
1742766305787957500,2.83895751953125,0.002748812548816204,0.014049487188458443,-0.0018325417768210173
1742766305790354700,2.841354736328125,0.00992626789957285,0.026571854948997498,-0.004275931045413017
1742766305792751900,2.843751953125,-0.0007635590736754239,0.006413896102458239,0.012369656935334206
1742766305795149300,2.8461494140625,-0.006719320081174374,-0.008704573847353458,0.03023693896830082
1742766305797546500,2.84854638671875,0.006719320081174374,-0.013438640162348747,0.021837789565324783
1742766305799943700,2.850943603515625,0.011453386396169662,-0.014507622458040714,0.0038177953101694584
1742766305802340900,2.8533408203125,-0.0007635590736754239,-0.009620844386518002,0.003970507066696882
1742766305804724700,2.855724853515625,-0.0021379655227065086,0.016492875292897224,-0.005497625097632408
1742766305807135500,2.858135498046875,0.0050394898280501366,0.03298575058579445,-0.03161134570837021
1742766305809532700,2.86053271484375,0.00992626789957285,0.015576604753732681,-0.03405473381280899
1742766305811916500,2.86291650390625,0.005497625097632408,-0.02076880633831024,-0.009315420873463154
1742766305814327300,2.865327392578125,-0.0016798300202935934,-0.025961007922887802,0.025350160896778107
1742766305816724500,2.867724365234375,0.0006108472589403391,0.0012216945178806782,0.04688252881169319
1742766305819108400,2.8701083984375,0.010078979656100273,0.02626643143594265,0.04230117425322533
1742766305821519000,2.87251904296875,0.007635590620338917,0.016645587980747223,0.0004581354442052543
1742766305823916300,2.874916259765625,-0.004428642801940441,-0.01572931744158268,-0.03436015918850899
1742766305826300200,2.877300048828125,-0.0068720318377017975,-0.024586603045463562,-0.02473931387066841
1742766305828710700,2.879710693359375,0.0004581354442052543,-0.004734066314995289,0.013438640162348747
1742766305831108000,2.882108154296875,0.0065666078589856625,0.007482878863811493,0.04810422286391258
1742766305833492000,2.884491943359375,-0.0006108472589403391,0,0.04214845970273018
1742766305835902500,2.88690234375,-0.005650337319821119,-0.0035123717971146107,0.003970507066696882
1742766305838300000,2.8892998046875,0.0015271181473508477,-0.0068720318377017975,-0.03787253051996231
1742766305840697000,2.891697021484375,-0.0021379655227065086,-0.010689826682209969,-0.04504998400807381
1742766305843094300,2.89409423828125,-0.012980503961443901,-0.0010689827613532543,-0.01038440316915512
