time,seconds_elapsed,z,y,x
1742766303000480000,0.05147998046875,8.652446746826172,0.45583271980285645,-0.21355941891670227
1742766303002877200,0.053877197265625,8.652446746826172,0.45583271980285645,-0.21355941891670227
1742766303005274400,0.0562744140625,10.483553886413574,1.2029916048049927,-1.2903295755386353
1742766303007671800,0.058671875,10.559526443481445,0.8410771489143372,-0.9445667266845703
1742766303010069000,0.061069091796875,11.44247817993164,0.3445664644241333,-0.4737788736820221
1742766303012466200,0.063466064453125,12.186047554016113,0.7004988193511963,-0.7016952633857727
1742766303014863600,0.065863525390625,11.931211471557617,-0.07896314561367035,-0.2147558331489563
1742766303017260800,0.0682607421875,10.811370849609375,-0.9726824164390564,1.2400803565979004
1742766303019658000,0.070657958984375,9.418747901916504,-1.093519926071167,1.5332010984420776
1742766303022055200,0.07305517578125,8.548358917236328,-0.4654040038585663,0.41934216022491455
1742766303024452600,0.07545263671875,8.244470596313477,0.48574298620224,-0.46061834692955017
1742766303026849800,0.077849853515625,7.011568546295166,0.16450655460357666,-0.711864709854126
1742766303029247000,0.0802470703125,6.448657035827637,-0.4342973232269287,-0.8656035661697388
1742766303031644200,0.08264404296875,7.898707389831543,0.14715859293937683,-1.01814603805542
1742766303034041600,0.08504150390625,11.048858642578125,0.04426721855998039,-0.23629122972488403
1742766303036425500,0.087425537109375,13.95853042602539,-0.8560323119163513,0.8859425783157349
1742766303038836000,0.0898359375,13.765310287475586,-0.3026920557022095,0.9511470198631287
1742766303041233400,0.0922333984375,10.606185913085938,0.5383850932121277,-0.12741780281066895
1742766303043617300,0.0946171875,6.814758777618408,0.19980068504810333,-0.6161518096923828
1742766303046027800,0.09702783203125,5.3108696937561035,0.1860419660806656,-0.06939185410737991
1742766303048425000,0.099425048828125,6.099903106689453,0.33858439326286316,0.6197410821914673
1742766303050808800,0.101808837890625,9.014361381530762,-0.13579268753528595,0.09631111472845078
1742766303053219600,0.104219482421875,11.709277153015137,0.03290131315588951,-1.2705888748168945
1742766303055616800,0.10661669921875,12.200404167175293,0.6909275650978088,-0.5874379873275757
1742766303058014000,0.109013916015625,11.405987739562988,0.25244277715682983,0.7782655358314514
1742766303060411400,0.111411376953125,10.38784122467041,0.41096729040145874,0.2153540402650833
1742766303062808600,0.11380859375,10.127023696899414,1.3968101739883423,-0.8979067206382751
1742766303065205800,0.116205810546875,9.484550476074219,0.5395814776420593,-0.9152546525001526
1742766303067603200,0.118603271484375,10.036694526672363,-0.3080759048461914,-0.3403790295124054
1742766303070000400,0.12100048828125,10.054640769958496,-0.18125630915164948,-0.02512463741004467
1742766303072397600,0.1233974609375,9.44626522064209,0.18783657252788544,-0.08374879509210587
1742766303074794800,0.125794677734375,9.186046600341797,-0.11306086927652359,-0.2757728099822998
1742766303077192200,0.128192138671875,9.880562782287598,-0.4713860750198364,-0.2602194547653198
1742766303079589400,0.13058935546875,11.154142379760742,-0.0005982056609354913,-0.4749752879142761
1742766303081986600,0.132986572265625,11.027921676635742,0.1579262912273407,-1.1018948554992676
1742766303084384000,0.135384033203125,9.855438232421875,0.020937198773026466,-1.0235298871994019
1742766303086781200,0.13778125,9.605986595153809,0.45643091201782227,-0.11126625537872314
1742766303089178400,0.140178466796875,10.104889869689941,-0.34217363595962524,0.973878800868988
1742766303091575600,0.142575439453125,10.552348136901855,-1.3824533224105835,0.9385846853256226
1742766303093973000,0.144972900390625,9.403793334960938,-0.3032902777194977,0.23748764395713806
1742766303096370200,0.1473701171875,8.002795219421387,0.6855437159538269,-0.04905286431312561
1742766303098767400,0.149767333984375,7.6049885749816895,0.3188436031341553,0.1256231814622879
1742766303101164800,0.152164794921875,9.078369140625,0.4833501875400543,0.03290131315588951
1742766303103562000,0.15456201171875,10.114460945129395,0.4307080805301666,-0.5126622319221497
1742766303105959200,0.156959228515625,10.246665000915527,-0.2763710021972656,-0.4504488706588745
1742766303108356400,0.1593564453125,10.286744117736816,0.04785645380616188,0.26081767678260803
1742766303110753800,0.16175390625,10.13180923461914,0.6376872062683105,0.9074779748916626
1742766303113151000,0.16415087890625,9.951749801635742,0.4701896607875824,0.7256234884262085
1742766303115548200,0.166548095703125,8.927022933959961,-0.09212367236614227,-0.28953152894973755
1742766303117945300,0.1689453125,7.902894973754883,-0.22552353143692017,-0.5682953596115112
1742766303120342800,0.1713427734375,8.162516593933105,0.10767702013254166,-0.15254244208335876
1742766303122740000,0.173739990234375,9.264410972595215,0.15254244208335876,-0.04546362906694412
1742766303125137200,0.17613720703125,10.261021614074707,0.16031911969184875,-0.39541393518447876
1742766303127534600,0.17853466796875,10.427323341369629,0.26440688967704773,-1.0139585733413696
1742766303129931800,0.180931884765625,10.679765701293945,-0.04247260093688965,-0.7070791125297546
1742766303132329000,0.183328857421875,11.20080280303955,-0.2835494875907898,0.16689938306808472
1742766303134726100,0.18572607421875,11.163714408874512,0.025722842663526535,0.020937198773026466
1742766303137123600,0.18812353515625,9.755537986755371,-0.053240302950143814,-0.5814558863639832
1742766303139520800,0.190520751953125,8.268997192382812,-0.3936193287372589,-0.3655036687850952
1742766303141918000,0.19291796875,8.806185722351074,-0.4175475537776947,-0.07597211748361588
1742766303144315100,0.195315185546875,10.176076889038086,-0.7399803996086121,-0.1094716340303421
1742766303146712600,0.197712646484375,11.191829681396484,-0.7423732280731201,-0.19740787148475647
1742766303149109800,0.20010986328125,11.006983757019043,-0.09930214285850525,-0.07956135272979736
1742766303151507000,0.2025068359375,10.439287185668945,-0.2805584669113159,0.763310432434082
1742766303153904400,0.204904296875,10.494919776916504,-0.5461617708206177,0.857228696346283
1742766303156301600,0.207301513671875,11.105688095092773,0.08315058797597885,-0.23629122972488403
1742766303158698800,0.20969873046875,11.425727844238281,0.15493527054786682,-0.6125625967979431
1742766303161096000,0.212095947265625,10.87298583984375,-0.11904292553663254,-0.18364913761615753
1742766303163493400,0.214493408203125,9.543174743652344,0.4701896607875824,-0.14895321428775787
1742766303165877200,0.216877197265625,8.355138778686523,0.4301098585128784,-0.41874396800994873
1742766303168287700,0.219287841796875,8.675178527832031,0.13878370821475983,-0.46360939741134644
1742766303170685200,0.221685302734375,8.496315002441406,0.26919254660606384,-0.31046873331069946
1742766303173069000,0.224069091796875,7.841279983520508,0.1423729509115219,-0.1704886108636856
1742766303175479600,0.2264794921875,9.08554744720459,0.706480860710144,0.07657032459974289
1742766303177877000,0.228876953125,10.478768348693848,0.4265206456184387,0.14835500717163086
1742766303180274200,0.231274169921875,10.145567893981934,-0.5754738450050354,0.2153540402650833
1742766303182671400,0.23367138671875,8.61894702911377,0.04127619042992592,-0.11126625537872314
1742766303185068500,0.236068603515625,6.879963397979736,0.7872386574745178,-0.9559326171875
1742766303187452400,0.238452392578125,6.6149582862854,0.4953143000602722,-1.0564311742782593
1742766303189863200,0.24086328125,8.011768341064453,-0.1052841991186142,-0.649053156375885
1742766303192260400,0.24326025390625,9.776474952697754,-0.5850451588630676,-0.5647061467170715
1742766303194644200,0.245644287109375,11.23190975189209,-0.5126622319221497,-0.5443671345710754
1742766303197055000,0.248054931640625,11.874382019042969,-0.5359922647476196,-0.07896314561367035
1742766303199452200,0.2504521484375,12.282957077026367,-0.5682953596115112,0.605384111404419
1742766303201836000,0.2528359375,11.777473449707031,-0.42352959513664246,-0.049651071429252625
1742766303204246800,0.255246826171875,10.221540451049805,0.24646073579788208,-0.6185446381568909
1742766303206644000,0.25764404296875,9.943374633789062,0.33439695835113525,0.24406790733337402
1742766303209041200,0.260041259765625,10.557731628417969,-0.20757736265659332,0.6586244106292725
1742766303211438300,0.262438232421875,10.393823623657227,0.275174617767334,-0.36191442608833313
1742766303213835800,0.264835693359375,9.319445610046387,0.3194418251514435,-1.0067801475524902
1742766303216219600,0.2672197265625,8.536993026733398,-0.37088751792907715,-0.537188708782196
1742766303218630100,0.269630126953125,8.050651550292969,-0.5365904569625854,0.3439682424068451
1742766303221027300,0.27202734375,8.807381629943848,-0.04187439754605293,0.8063812255859375
1742766303223424800,0.2744248046875,10.538589477539062,0.6275177597999573,-0.06041877344250679
1742766303225822000,0.276822021484375,10.112068176269531,0.6173482537269592,-0.8261220455169678
1742766303228219100,0.27921923828125,8.230711936950684,0.4049852192401886,-0.4612165689468384
1742766303230603000,0.28160302734375,7.674380302429199,0.4983053207397461,-0.3595215976238251
1742766303233013800,0.284013671875,10.26341438293457,0.802193820476532,-0.46360939741134644
1742766303235411000,0.286410888671875,12.568899154663086,0.7357929348945618,-0.2602194547653198
1742766303237794800,0.288794921875,12.695718765258789,0.5659025311470032,-0.2225325107574463
1742766303240205600,0.29120556640625,11.32822036743164,-0.13519448041915894,-0.8087740540504456
1742766303242602800,0.293602783203125,10.068997383117676,-0.6789634227752686,-1.0707881450653076
1742766303244986600,0.295986572265625,8.660223007202148,-0.20338992774486542,-0.4462614357471466
1742766303247397000,0.298397216796875,6.8554368019104,-0.3361915946006775,0.37148571014404297
1742766303249794600,0.300794677734375,7.585845947265625,-0.537188708782196,0.373878538608551
1742766303252178400,0.303178466796875,10.77129077911377,-0.06759724020957947,-0.2745763957500458
1742766303254589000,0.3055888671875,12.958929061889648,-0.6711867451667786,-0.17228323221206665
1742766303256986400,0.307986328125,11.903694152832031,-1.3770694732666016,0.9355936646461487
1742766303259383600,0.310383544921875,9.714262008666992,-0.1704886108636856,0.9996016621589661
1742766303261780700,0.31278076171875,8.755337715148926,1.124626636505127,0.16510476171970367
1742766303264178000,0.315177978515625,8.72901725769043,0.4492524564266205,-0.6239284873008728
1742766303266575400,0.317575439453125,9.512666702270508,-0.21176479756832123,-0.7244270443916321
1742766303268972500,0.31997265625,9.938589096069336,-0.11964113265275955,-0.23449662327766418
1742766303271369700,0.32236962890625,10.310672760009766,0.007178467698395252,-0.09152546525001526
1742766303273767000,0.324766845703125,10.401599884033203,0.05563312768936157,-0.03888336941599846
1742766303276164400,0.327164306640625,10.323833465576172,0.11126625537872314,0.018544375896453857
1742766303278561500,0.3295615234375,9.969695091247559,0.494716078042984,-0.364905446767807
1742766303280958700,0.331958740234375,9.927223205566406,0.8261220455169678,-1.186241865158081
1742766303283356200,0.334356201171875,10.537392616271973,0.6550351977348328,-0.8793623447418213
1742766303285753300,0.33675341796875,11.288141250610352,0.4785645306110382,0.02751746028661728
1742766303288150500,0.339150634765625,10.785648345947266,0.004187439568340778,0.5784648656845093
1742766303290547700,0.341547607421875,9.664610862731934,-0.46420758962631226,0.6735795736312866
1742766303292945200,0.343945068359375,8.416753768920898,-0.7112665176391602,-0.07657032459974289
1742766303295329000,0.3463291015625,7.844869136810303,-0.98703932762146,-0.49591249227523804
1742766303297739500,0.348739501953125,8.03210735321045,-0.6059823632240295,-0.10348957777023315
1742766303300137000,0.351136962890625,8.717052459716797,0.2835494875907898,0.08015955984592438
1742766303302534100,0.3535341796875,8.617152214050293,0.22193430364131927,-0.12921242415905
1742766303304931300,0.355931396484375,8.151150703430176,-0.5569294691085815,-0.13220344483852386
1742766303307328800,0.358328857421875,10.01456069946289,-0.05383851006627083,0.12801600992679596
1742766303309712400,0.36071240234375,11.680563926696777,0.08195417374372482,0.24825534224510193
1742766303312123100,0.363123046875,10.764710426330566,-0.29312077164649963,0.2105683982372284
1742766303314520300,0.365520263671875,9.21834945678711,0.41575294733047485,0.48873403668403625
1742766303316917800,0.367917724609375,8.804390907287598,0.17527425289154053,0.12203395366668701
1742766303319315000,0.37031494140625,8.844470977783203,-0.39900317788124084,-0.8566305041313171
1742766303321712000,0.372712158203125,8.421539306640625,0.08554340898990631,-0.8632107973098755
1742766303324109300,0.375109375,8.14516830444336,0.40737804770469666,-0.15553347766399384
1742766303326506800,0.3775068359375,9.134002685546875,0.6514459848403931,-0.21415762603282928
1742766303328904000,0.379904052734375,10.904690742492676,0.8991031050682068,-0.46002015471458435
1742766303331287800,0.382287841796875,12.505489349365234,0.4295116662979126,0.10588239878416061
1742766303333698600,0.384698486328125,12.80459213256836,0.267397940158844,-0.18125630915164948
1742766303336095700,0.387095703125,10.454241752624512,0.8165507316589355,-1.0163514614105225
1742766303338479600,0.389479736328125,8.699705123901367,0.4875376224517822,-0.7950153350830078
1742766303340890000,0.39189013671875,9.42891788482666,-0.7974081635475159,0.20159530639648438
1742766303343287600,0.39428759765625,10.575677871704102,-0.9499505758285522,-0.049651071429252625
1742766303345684700,0.396684814453125,9.896714210510254,0.15553347766399384,-1.25144624710083
1742766303348082000,0.39908203125,8.210970878601074,0.8668000102043152,-0.7393822073936462
1742766303350479000,0.40147900390625,7.936394691467285,-0.1543370634317398,0.5222335457801819
1742766303352876500,0.40387646484375,9.477970123291016,-0.49651068449020386,0.15074782073497772
1742766303355273700,0.406273681640625,10.86161994934082,0.43489551544189453,-0.7956135272979736
1742766303357671000,0.4086708984375,10.880763053894043,-0.3774677813053131,-0.7615157961845398
1742766303360068400,0.411068359375,10.53499984741211,-1.1282159090042114,0.43968117237091064
1742766303362465500,0.413465576171875,10.366904258728027,-0.26500511169433594,0.3451646566390991
1742766303364862700,0.41586279296875,10.219745635986328,0.39481574296951294,-0.7034898400306702
1742766303367260000,0.418260009765625,9.561120986938477,0.15254244208335876,-0.3320041298866272
1742766303369657300,0.4206572265625,8.185846328735352,-0.1860419660806656,0.7740781307220459
1742766303372054500,0.423054443359375,8.065607070922852,0.25423741340637207,0.7573283910751343
1742766303374451700,0.42545166015625,8.98803997039795,0.841675341129303,-0.6083751320838928
1742766303376849200,0.42784912109375,9.745368003845215,0.4013960063457489,-1.164108157157898
1742766303379246300,0.430246337890625,9.567103385925293,-0.3290131092071533,0.07058826833963394
1742766303381630200,0.432630126953125,9.515657424926758,0.01136590726673603,1.2765709161758423
1742766303384040700,0.435040771484375,10.77248764038086,0.7166503667831421,0.6628118753433228
1742766303386438100,0.437438232421875,11.307283401489258,-0.37447673082351685,-0.39601215720176697
1742766303388835300,0.43983544921875,9.473783493041992,-0.96370929479599,-0.6711867451667786
1742766303391232500,0.442232421875,7.261020183563232,0.15672987699508667,-0.49351966381073
1742766303393630000,0.4446298828125,6.883552551269531,0.9308080077171326,-0.2745763957500458
1742766303396027100,0.447027099609375,9.210572242736816,0.6801598072052002,-0.09990034252405167
1742766303398424300,0.44942431640625,11.578868865966797,0.18723836541175842,-0.05024927482008934
1742766303400821500,0.451821533203125,12.101101875305176,0.18903298676013947,-0.2997010350227356
1742766303403219000,0.454218994140625,10.9633150100708,0.3397808074951172,-0.5581258535385132
1742766303405616000,0.4566162109375,9.643074989318848,-0.2997010350227356,0.05144568532705307
1742766303408013300,0.459013427734375,9.09691333770752,-1.0630114078521729,0.381655216217041
1742766303410410800,0.46141064453125,9.829116821289062,-1.0115658044815063,-0.7860422134399414
1742766303412808000,0.463807861328125,10.74437141418457,-0.268594354391098,-1.9746768474578857
1742766303415205000,0.466205078125,10.938788414001465,-0.006580262444913387,-0.6789634227752686
1742766303417589000,0.468589111328125,11.345568656921387,-0.3158525824546814,1.2233306169509888
1742766303419999700,0.470999755859375,10.992029190063477,-0.43968117237091064,0.5521438121795654
1742766303422397000,0.47339697265625,9.926026344299316,0.12382857501506805,-0.5521438121795654
1742766303424780800,0.47578076171875,8.192426681518555,0.4492524564266205,0.10588239878416061
1742766303427191300,0.47819140625,7.642675399780273,-0.4259224236011505,1.069591760635376
1742766303429588700,0.480588623046875,10.031908988952637,-0.26620152592658997,0.8165507316589355
1742766303431972600,0.48297265625,12.838091850280762,0.2350948303937912,-0.3487538993358612
1742766303434383000,0.485383056640625,12.81177043914795,-0.8213363885879517,-1.0013962984085083
1742766303436780500,0.487780517578125,9.65683364868164,-1.0671988725662231,-0.4103690981864929
1742766303439164400,0.490164306640625,6.873981475830078,0.5156532526016235,0.22851456701755524
1742766303441575000,0.492574951171875,7.204789161682129,1.2873386144638062,-0.5353940725326538
1742766303443972000,0.49497216796875,10.01994514465332,1.085145115852356,-1.5996019840240479
1742766303446356000,0.49735595703125,12.256037712097168,0.8632107973098755,-0.7585247755050659
1742766303448766700,0.4997666015625,12.589238166809082,0.2763710021972656,0.36610186100006104
1742766303451164000,0.502163818359375,10.18445110321045,0.1788634955883026,0.48574298620224
1742766303453547800,0.5045478515625,7.60080099105835,0.23748764395713806,0.2871387302875519
1742766303455958500,0.50695849609375,6.198009014129639,-0.7501499056816101,0.09511470049619675
1742766303458355700,0.509355712890625,6.190830230712891,-0.9206385016441345,-0.16749759018421173
1742766303460739600,0.511739501953125,6.912266254425049,0.05383851006627083,-0.6406782865524292
1742766303463150300,0.514150390625,7.867002487182617,0.388235479593277,-0.7651050686836243
1742766303465547500,0.516547607421875,8.949156761169434,0.05742774158716202,-0.7597211599349976
1742766303467931400,0.518931396484375,10.642677307128906,-0.14775680005550385,-0.7357929348945618
1742766303470342000,0.521341796875,12.187243461608887,0.2267199456691742,-0.028115665540099144
1742766303472739300,0.5237392578125,11.620144844055176,-0.06819544732570648,0.7950153350830078
1742766303475123200,0.526123291015625,10.377073287963867,-0.2835494875907898,1.3208380937576294
1742766303477533700,0.52853369140625,10.055238723754883,0.2315055876970291,1.0390832424163818
1742766303479931000,0.530930908203125,10.505687713623047,0.14895321428775787,-0.47258245944976807
1742766303482315000,0.53331494140625,8.74756145477295,-0.7579265832901001,-1.4536397457122803
1742766303484725500,0.5357255859375,6.557530403137207,-0.35533416271209717,-1.2131611108779907
1742766303487122700,0.538122802734375,6.50189733505249,0.7489534616470337,-0.7363911867141724
1742766303489520000,0.54052001953125,9.142376899719238,0.7668996453285217,-0.5042873620986938
1742766303491917300,0.542917236328125,12.147164344787598,0.36610186100006104,-0.35114672780036926
1742766303494314500,0.545314453125,13.496716499328613,0.10229317098855972,0.14476576447486877
1742766303496698400,0.547698486328125,12.17109203338623,-0.04187439754605293,0.4749752879142761
1742766303499109000,0.550109130859375,9.78664493560791,0.6041877269744873,0.20817556977272034
1742766303501506300,0.55250634765625,8.625527381896973,0.3314059376716614,-0.14297115802764893
1742766303503903500,0.554903564453125,8.82951545715332,-0.7525427341461182,-0.47796630859375
1742766303506300700,0.55730078125,8.955737113952637,-0.07537391036748886,-0.7938188910484314
1742766303508698000,0.559697998046875,8.131409645080566,0.7040880918502808,-0.6783652305603027
1742766303511095300,0.56209521484375,8.267202377319336,0.20518454909324646,-0.3529413342475891
1742766303513492500,0.564492431640625,10.264012336730957,-0.07238288223743439,-0.44446679949760437
1742766303515890000,0.566889892578125,12.571889877319336,0.07657032459974289,-0.5533402562141418
1742766303518273800,0.569273681640625,12.852448463439941,-0.13519448041915894,-0.32183465361595154
1742766303520684300,0.571684326171875,10.942378044128418,-0.2949153780937195,0.0005982056609354913
1742766303523081700,0.574081787109375,10.209575653076172,-0.32243284583091736,0.10707881301641464
1742766303525479000,0.57647900390625,11.000404357910156,-0.35533416271209717,-0.14715859293937683
1742766303527876000,0.5788759765625,11.054841041564941,-0.5198407173156738,-0.39122650027275085
1742766303530273300,0.581273193359375,8.672187805175781,-0.4007977843284607,0.12442677468061447
1742766303532657200,0.5836572265625,6.585047721862793,0.25722843408584595,0.7800601720809937
1742766303535068000,0.58606787109375,7.560721397399902,0.4085744619369507,0.3026920557022095
1742766303537465000,0.588465087890625,10.459626197814941,-0.03170489892363548,-0.4731806814670563
1742766303539849000,0.590848876953125,12.099308013916016,-0.04366901144385338,-0.2626122832298279
1742766303542259700,0.593259765625,10.953743934631348,0.007178467698395252,0.3595215976238251
1742766303544657000,0.595656982421875,8.892327308654785,0.04127619042992592,0.4737788736820221
1742766303547040800,0.598040771484375,8.590232849121094,0.04426721855998039,0.2602194547653198
1742766303549451500,0.600451416015625,9.376275062561035,-0.4295116662979126,-0.2679961323738098
1742766303551848700,0.6028486328125,8.47896671295166,-0.35413774847984314,-1.074377417564392
1742766303554232600,0.605232666015625,7.067800045013428,1.0893324613571167,-1.1922239065170288
1742766303556643000,0.60764306640625,7.919046401977539,1.6857435703277588,-0.6771687865257263
1742766303559040500,0.61004052734375,10.65224838256836,0.3188436031341553,0.03768695518374443
1742766303561424400,0.61242431640625,12.273386001586914,-0.5593222975730896,0.6771687865257263
1742766303563835000,0.6148349609375,11.81157112121582,-0.4492524564266205,0.43130627274513245
1742766303566232000,0.617232177734375,10.39202880859375,-0.3678964674472809,0.058624155819416046
1742766303568629500,0.61962939453125,9.250054359436035,-0.22372891008853912,0.15732808411121368
1742766303571026700,0.622026611328125,8.994620323181152,-0.9517452120780945,-0.2554338276386261
1742766303573423900,0.624423828125,8.835497856140137,-1.2867404222488403,-1.1042876243591309
1742766303575821300,0.6268212890625,8.813364028930664,-0.21236300468444824,-1.1838489770889282
1742766303578218500,0.629218505859375,9.94397258758545,0.26979073882102966,-0.19381862878799438
1742766303580615700,0.63161572265625,12.09033489227295,-0.09930214285850525,0.4181457459926605
1742766303582999600,0.63399951171875,13.03071403503418,-0.23389841616153717,-0.1417747437953949
1742766303585410300,0.636410400390625,11.70867919921875,0.13220344483852386,-0.17946170270442963
1742766303587807500,0.638807373046875,9.871589660644531,0.3080759048461914,0.5539384484291077
1742766303590204700,0.64120458984375,9.357730865478516,0.010767702013254166,0.9391828775405884
1742766303592601900,0.643601806640625,10.41057300567627,0.08673982322216034,0.3846462368965149
1742766303594999300,0.645999267578125,10.340582847595215,-0.10588239878416061,-1.1443674564361572
1742766303597383200,0.648383056640625,8.156534194946289,-0.24885354936122894,-1.973480463027954
1742766303599793700,0.650793701171875,5.536991596221924,0.4695914387702942,-1.0827522277832031
1742766303602191000,0.653191162109375,5.270790100097656,1.196411371231079,0.1501496136188507
1742766303604588300,0.65558837890625,8.547760963439941,0.7956135272979736,0.08315058797597885
1742766303606985500,0.6579853515625,12.426526069641113,0.20937198400497437,-0.7716853022575378
1742766303609382700,0.660382568359375,13.663615226745605,0.5742774605751038,-0.7818548083305359
1742766303611766800,0.662766845703125,11.504691123962402,0.36251261830329895,-0.001794616924598813
1742766303614177300,0.66517724609375,9.144769668579102,-0.23629122972488403,0.5856433510780334
1742766303616574500,0.667574462890625,8.773283958435059,-0.010767702013254166,0.1740778535604477
1742766303618972000,0.669971923828125,8.81934642791748,-0.7034898400306702,-0.8009973764419556
1742766303621369000,0.672369140625,9.66640567779541,-1.0869396924972534,-1.262213945388794
1742766303623766300,0.674766357421875,10.475179672241211,0.27816563844680786,-0.6903293132781982
1742766303626163700,0.677163818359375,10.65822982788086,0.6059823632240295,-0.20338992774486542
1742766303628561000,0.679560791015625,10.75693416595459,-0.49172505736351013,-0.966102123260498
1742766303630958000,0.6819580078125,11.273783683776855,-0.4331009089946747,-1.1527422666549683
1742766303633342000,0.684342041015625,12.05504035949707,-0.3403790295124054,0.13579268753528595
1742766303635752700,0.686752685546875,12.403196334838867,-0.6125625967979431,1.1431710720062256
1742766303638150000,0.68914990234375,11.767901420593262,0.035892341285943985,1.1718848943710327
1742766303640547000,0.691547119140625,10.40638542175293,0.06759724020957947,0.46061834692955017
1742766303642944300,0.6939443359375,8.905488014221191,-0.7076773047447205,-0.6825526356697083
1742766303645341700,0.696341796875,7.398009300231934,-0.1052841991186142,-0.9421738982200623
1742766303647725600,0.6987255859375,6.437291145324707,1.0157532691955566,-0.06759724020957947
1742766303650136000,0.701135986328125,7.993224143981934,1.1312068700790405,0.14835500717163086
1742766303652533500,0.703533447265625,11.015358924865723,0.8207381963729858,-0.6891329288482666
1742766303654917400,0.70591748046875,12.54736328125,0.9385846853256226,-0.9583254456520081
1742766303657327900,0.708327880859375,11.25045394897461,0.4139583110809326,-0.3966103494167328
1742766303659725000,0.71072509765625,8.930612564086914,-0.34576287865638733,0.12861421704292297
1742766303662109000,0.71310888671875,8.546564102172852,0.06759724020957947,0.2225325107574463
1742766303664519700,0.715519775390625,10.273584365844727,0.7489534616470337,-0.2356930375099182
1742766303666916900,0.717916748046875,11.222936630249023,-0.16031911969184875,-0.6610172390937805
1742766303669314000,0.72031396484375,9.967302322387695,-0.5587241053581238,-0.6843472719192505
1742766303671711500,0.72271142578125,8.37727165222168,0.6029912829399109,-0.7651050686836243
1742766303674108700,0.725108642578125,7.434499740600586,0.46839502453804016,-0.6161518096923828
1742766303676505900,0.727505859375,8.301300048828125,-0.28594231605529785,0.11605189740657806
1742766303678903300,0.7299033203125,9.78245735168457,-0.2715853750705719,0.37028929591178894
1742766303681300500,0.732300537109375,10.092926025390625,-0.6131607890129089,0.0771685317158699
1742766303683697700,0.73469775390625,10.083354949951172,-0.6305087804794312,-0.3038884699344635
1742766303686094800,0.7370947265625,10.345967292785645,-0.5473581552505493,-0.2757728099822998
1742766303688492300,0.7394921875,10.158130645751953,-1.2873386144638062,0.0023928226437419653
1742766303690889500,0.741889404296875,9.473783493041992,-0.5611169338226318,-0.29790642857551575
1742766303693286700,0.74428662109375,8.627920150756836,0.9547362327575684,-0.3116651475429535
1742766303695683800,0.746683837890625,8.855836868286133,0.7172485589981079,0.20099709928035736
1742766303698081300,0.749081298828125,10.118050575256348,0.13698910176753998,0.14775680005550385
1742766303700478500,0.751478515625,11.11167049407959,0.8045865893363953,-0.03170489892363548
1742766303702875600,0.753875732421875,11.156535148620605,0.6472585201263428,0.2147558331489563
1742766303705273000,0.756273193359375,11.147562026977539,-0.17647066712379456,0.4815555512905121
1742766303707670300,0.758670166015625,11.293524742126465,0.015553346835076809,0.36311084032058716
1742766303710067500,0.7610673828125,11.635698318481445,0.21774685382843018,-0.35114672780036926
1742766303712451300,0.763451416015625,11.042278289794922,-0.30568310618400574,-1.5236297845840454
1742766303714862000,0.765862060546875,9.09392261505127,-0.08374879509210587,-1.6941183805465698
1742766303717259300,0.76825927734375,8.047660827636719,0.9074779748916626,-0.6963114142417908
1742766303719656400,0.770656494140625,10.018150329589844,0.9200403094291687,0.17587246000766754
1742766303722053600,0.7730537109375,12.0933256149292,0.06281159073114395,0.19980068504810333
1742766303724451000,0.775451171875,11.861820220947266,-0.25782662630081177,0.1986042857170105
1742766303726848300,0.77784814453125,9.909276962280273,-0.04187439754605293,0.30927231907844543
1742766303729245400,0.780245361328125,8.213363647460938,-0.5563312768936157,-0.18484555184841156
1742766303731643000,0.782642822265625,7.432106971740723,-0.9667003750801086,-0.6376872062683105
1742766303734026800,0.78502685546875,7.216155052185059,-0.5455635786056519,-0.6586244106292725
1742766303736437200,0.787437255859375,7.203592777252197,-0.3026920557022095,-0.8715856671333313
1742766303738834700,0.789834716796875,8.085348129272461,0.1501496136188507,-1.1856436729431152
1742766303741231900,0.79223193359375,10.029516220092773,0.7082754969596863,-1.191625714302063
1742766303743629000,0.794629150390625,12.19502067565918,-0.06520441919565201,-0.4821537733078003
1742766303746026200,0.797026123046875,13.246068000793457,-0.15672987699508667,0.15314064919948578
1742766303748410000,0.79941015625,11.778669357299805,0.7280163168907166,0.6083751320838928
1742766303750820900,0.80182080078125,10.14437198638916,0.37507495284080505,1.1724830865859985
1742766303753218000,0.804218017578125,10.243673324584961,-0.35832518339157104,0.7728816866874695
1742766303755615500,0.806615478515625,10.255638122558594,-0.6406782865524292,-0.8231309652328491
1742766303758012700,0.8090126953125,8.7236328125,-0.8003991842269897,-1.7587246894836426
1742766303760409900,0.811409912109375,6.701697826385498,0.03409772366285324,-0.9355936646461487
1742766303762793700,0.813793701171875,6.340980052947998,1.0097711086273193,0.9182456731796265
1742766303765204500,0.81620458984375,9.127422332763672,0.9002995491027832,1.2873386144638062
1742766303767601700,0.8186015625,12.132806777954102,0.36311084032058716,-0.6939185857772827
1742766303769985500,0.820985595703125,11.81037425994873,0.35054850578308105,-1.9166508913040161
1742766303772396000,0.82339599609375,9.22253704071045,0.4384847581386566,-0.1866401731967926
1742766303774793500,0.82579345703125,8.778668403625488,0.38225340843200684,1.5230315923690796
1742766303777190700,0.828190673828125,10.633105278015137,-0.05563312768936157,0.9218349456787109
1742766303779587800,0.830587890625,11.70449161529541,-0.8087740540504456,-1.2083754539489746
1742766303781985300,0.8329853515625,9.717252731323242,-0.9726824164390564,-2.237887382507324
1742766303784369200,0.835369140625,6.973283290863037,0.17587246000766754,-1.1682956218719482
1742766303786779600,0.837779541015625,7.000202655792236,1.1922239065170288,-0.01136590726673603
1742766303789176800,0.8401767578125,9.610772132873535,0.8237292170524597,-0.47617170214653015
1742766303791561000,0.84256103515625,12.06760311126709,-0.21714866161346436,-0.8063812255859375
1742766303793971500,0.844971435546875,12.847662925720215,-0.5443671345710754,-0.17168502509593964
1742766303796368600,0.84736865234375,12.04786205291748,-0.1423729509115219,0.31764721870422363
1742766303798765800,0.849765869140625,11.201400756835938,-0.3068794906139374,0.12861421704292297
1742766303801163300,0.852163330078125,10.541580200195312,-0.49232324957847595,-0.30927231907844543
1742766303803560400,0.854560546875,8.904889106750488,-0.6634100675582886,-0.07238288223743439
1742766303805944300,0.8569443359375,7.174280643463135,-0.5928218364715576,0.09810572862625122
1742766303808355000,0.85935498046875,6.759125709533691,0.5072783827781677,-0.28594231605529785
1742766303810752300,0.861752197265625,8.191828727722168,1.303490161895752,-0.646660327911377
1742766303813149400,0.8641494140625,10.113862991333008,0.47258245944976807,-0.43190449476242065
1742766303815546600,0.866546630859375,11.45264720916748,0.3008974492549896,-0.3026920557022095
1742766303817944000,0.868944091796875,10.890334129333496,0.4827519655227661,0.23808585107326508
1742766303820341200,0.87134130859375,10.88973617553711,0.17946170270442963,0.9080761671066284
1742766303822738400,0.873738525390625,11.797213554382324,-0.05144568532705307,0.6472585201263428
1742766303825135600,0.876135498046875,11.12483024597168,-0.34995031356811523,-0.9571290612220764
1742766303827519700,0.878519775390625,8.288737297058105,-0.12741780281066895,-2.2205393314361572
1742766303829930200,0.88093017578125,6.067600250244141,0.9385846853256226,-1.6767704486846924
1742766303832327400,0.883327392578125,6.571887493133545,0.9750752449035645,0.6933203339576721
1742766303834711300,0.885711181640625,9.462417602539062,0.09212367236614227,2.101496458053589
1742766303837122000,0.8881220703125,11.690732955932617,-0.3774677813053131,0.10348957777023315
1742766303839519200,0.890519287109375,11.933006286621094,-0.3164508044719696,-2.2301106452941895
1742766303841916400,0.89291650390625,10.543375015258789,-0.2919243574142456,-1.4937195777893066
1742766303844313900,0.89531396484375,8.900702476501465,-0.6759724020957947,0.6173482537269592
1742766303846711000,0.8977109375,8.481958389282227,-0.9535398483276367,0.9505487680435181
1742766303849108200,0.900108154296875,10.159326553344727,-0.5940182209014893,-0.7848458290100098
1742766303851505700,0.902505615234375,11.520842552185059,-0.28953152894973755,-1.7670994997024536
1742766303853902800,0.90490283203125,10.206584930419922,-0.5102694034576416,-0.32303106784820557
1742766303856286700,0.90728662109375,8.397012710571289,0.20099709928035736,0.8087740540504456
1742766303858697200,0.909697265625,8.002795219421387,1.1078768968582153,0.014955141581594944
1742766303861094700,0.9120947265625,9.745368003845215,0.8344969153404236,-0.36729827523231506
1742766303863478500,0.914478515625,12.17228889465332,-0.14117653667926788,0.4223332107067108
1742766303865889000,0.916888916015625,12.711870193481445,-0.3966103494167328,0.36251261830329895
1742766303868286500,0.919286376953125,10.920842170715332,0.2925225794315338,-0.8105686902999878
1742766303870683600,0.92168359375,9.425926208496094,0.6263213157653809,-1.2813565731048584
1742766303873080800,0.924080810546875,8.33300495147705,-0.5635097622871399,-0.34277185797691345
1742766303875478000,0.92647802734375,7.539783954620361,-0.6478567123413086,0.5300102233886719
1742766303877862000,0.92886181640625,7.430312633514404,1.2532408237457275,0.12622138857841492
1742766303880272600,0.931272705078125,8.59920597076416,1.2987045049667358,-0.7238288521766663
1742766303882669800,0.933669921875,10.213763236999512,0.058624155819416046,-1.0671988725662231
1742766303885053700,0.9360537109375,10.923234939575195,0.5431707501411438,-0.3810569941997528
1742766303887464400,0.93846435546875,9.78245735168457,0.5742774605751038,0.37926238775253296
1742766303889861600,0.940861572265625,7.844869136810303,-0.5210371017456055,0.4827519655227661
1742766303892245500,0.94324560546875,7.603193759918213,-0.3332005441188812,0.48394837975502014
1742766303894656300,0.94565625,9.652647018432617,-0.2913261651992798,0.2560320198535919
1742766303897053400,0.948053466796875,11.131410598754883,-0.9583254456520081,-0.9505487680435181
1742766303899437300,0.950437255859375,9.58205795288086,-0.4576273262500763,-1.8490537405014038
1742766303901847800,0.952847900390625,6.8757758140563965,0.3248256742954254,-0.7489534616470337
1742766303904245200,0.955245361328125,6.9344000816345215,-0.11605189740657806,1.1724830865859985
1742766303906642400,0.957642333984375,10.063015937805176,-0.8787640929222107,0.7471588850021362
1742766303909039600,0.96003955078125,13.179667472839355,-0.2476571500301361,-0.8470591902732849
1742766303911436800,0.962436767578125,14.108680725097656,0.5682953596115112,-0.46420758962631226
1742766303913821000,0.964821044921875,12.573086738586426,0.022133609279990196,0.9176474809646606
1742766303916231400,0.9672314453125,11.070393562316895,-0.5318048596382141,1.0803594589233398
1742766303918628600,0.969628662109375,10.52064323425293,-0.35114672780036926,-0.18903298676013947
1742766303921026000,0.972026123046875,9.923035621643066,-0.48095735907554626,-1.1312068700790405
1742766303923423200,0.97442333984375,8.110472679138184,-0.3684946894645691,-0.9643075466156006
1742766303925820400,0.9768203125,6.836892604827881,1.1700903177261353,-0.7585247755050659
1742766303928204300,0.979204345703125,8.37547779083252,2.012363910675049,-0.47198426723480225
1742766303930615000,0.981614990234375,11.58843994140625,0.592223584651947,-0.27756741642951965
1742766303933012200,0.98401220703125,11.940783500671387,-0.5006981492042542,-0.3601198196411133
1742766303935409400,0.986409423828125,9.685547828674316,0.18125630915164948,-0.14117653667926788
1742766303937806600,0.988806640625,8.841479301452637,0.7076773047447205,0.2392822653055191
1742766303940204000,0.9912041015625,10.73121166229248,0.1010967567563057,0.050847481936216354
1742766303942588000,0.993587890625,11.7385892868042,-0.836291491985321,-0.3613162338733673
1742766303944998400,0.995998291015625,9.815957069396973,-0.6981059908866882,-0.6747759580612183
1742766303947395800,0.998395751953125,7.0271220207214355,0.08315058797597885,-0.5078766345977783
1742766303949779700,1.00077978515625,7.074379920959473,0.15613168478012085,0.15493527054786682
1742766303952190200,1.003190185546875,9.399605751037598,0.06819544732570648,0.03469592705368996
1742766303954587400,1.00558740234375,10.609177589416504,0.2745763957500458,-0.7339983582496643
1742766303956984800,1.00798486328125,10.129416465759277,-0.035892341285943985,-0.4534398913383484
1742766303959382000,1.010382080078125,10.237093925476074,-0.6101697683334351,0.7148557901382446
1742766303961779200,1.012779296875,11.291729927062988,-0.6203392744064331,1.2454642057418823
1742766303964163000,1.0151630859375,11.857034683227539,-0.6933203339576721,-0.022133609279990196
1742766303966573800,1.01757373046875,10.103693962097168,-0.7447660565376282,-1.2424731254577637
1742766303968971000,1.019970947265625,7.1228346824646,-0.3475574851036072,-0.5670989751815796
1742766303971355000,1.02235498046875,5.938985824584961,0.14057832956314087,0.8279166221618652
1742766303973765600,1.024765625,9.028717994689941,0.7004988193511963,1.186241865158081
1742766303976162800,1.027162841796875,12.702897071838379,0.33738797903060913,-0.1950150430202484
1742766303978546700,1.029546630859375,12.859028816223145,0.05563312768936157,-1.4117653369903564
1742766303980957400,1.03195751953125,10.030712127685547,0.6017948985099792,-0.768694281578064
1742766303983354600,1.034354736328125,8.38863754272461,0.9098708033561707,0.5407779216766357
1742766303985751800,1.036751708984375,9.40917682647705,0.48813581466674805,0.6699903607368469
1742766303988149000,1.03914892578125,11.2576322555542,-0.23270200192928314,-0.4049852192401886
1742766303990546400,1.04154638671875,11.822338104248047,-0.6442674994468689,-1.4889339208602905
1742766303992943600,1.043943603515625,10.65105152130127,0.3529413342475891,-1.1048858165740967
1742766303995340800,1.0463408203125,9.001200675964355,0.9876375198364258,0.6687939167022705
1742766303997738200,1.04873828125,8.785248756408691,0.267397940158844,1.6079767942428589
1742766304000135400,1.051135498046875,10.442875862121582,-0.6299105882644653,0.3762713670730591
1742766304002532600,1.05353271484375,12.04487133026123,-0.35473597049713135,-0.96370929479599
1742766304004929800,1.0559296875,11.417353630065918,-0.39122650027275085,-0.6340979933738708
1742766304007327200,1.0583271484375,9.17707347869873,-0.5653043389320374,-0.1537388563156128
1742766304009724400,1.060724365234375,7.563114166259766,0.15912270545959473,-0.2799602448940277
1742766304012121600,1.06312158203125,7.9657063484191895,-0.268594354391098,-0.30209386348724365
1742766304014505500,1.06550537109375,9.745966911315918,-1.6803597211837769,-0.09391828626394272
1742766304016916200,1.067916259765625,10.767104148864746,-0.914058268070221,-0.1256231814622879
1742766304019313400,1.0703134765625,10.16171932220459,0.9212366938591003,0.18963119387626648
1742766304021697300,1.072697265625,9.828518867492676,1.1611171960830688,0.9014959335327148
1742766304024108000,1.07510791015625,10.185050010681152,0.17288143932819366,0.7758727669715881
1742766304026505200,1.077505126953125,10.353145599365234,-0.3529413342475891,-0.08853443711996078
1742766304028902400,1.07990234375,10.747961044311523,-0.1178465187549591,-0.7405785918235779
1742766304031299600,1.082299560546875,10.590034484863281,0.25244277715682983,-1.062413215637207
1742766304033697000,1.084697021484375,9.93380355834961,0.28235307335853577,-0.8512466549873352
1742766304036094200,1.08709423828125,9.521639823913574,0.2709871530532837,-0.364905446767807
1742766304038491400,1.089491455078125,10.100104331970215,0.38763725757598877,-0.5276173949241638
1742766304040888600,1.091888671875,10.37946605682373,0.2715853750705719,-0.6143572330474854
1742766304043286000,1.0942861328125,9.760921478271484,0.3798605799674988,0.3684946894645691
1742766304045683200,1.09668310546875,8.620741844177246,0.32721850275993347,0.6753742098808289
1742766304048080400,1.099080322265625,8.1553373336792,0.36251261830329895,0.31046873331069946
1742766304050477800,1.101477783203125,9.360722541809082,0.5180460810661316,0.26081767678260803
1742766304052875000,1.103875,11.093125343322754,-0.4695914387702942,0.10408778488636017
1742766304055272200,1.106272216796875,11.172088623046875,-1.1216355562210083,-0.5850451588630676
1742766304057669400,1.10866943359375,9.900303840637207,0.2548356056213379,-1.098903775215149
1742766304060066800,1.11106689453125,8.3300142288208,0.5066801905632019,-0.646660327911377
1742766304062464000,1.113464111328125,8.682356834411621,-0.052043892443180084,-0.24107688665390015
1742766304064861200,1.115861083984375,10.402796745300293,0.3320041298866272,-0.23808585107326508
1742766304067258400,1.11825830078125,10.826326370239258,0.15553347766399384,-0.1585244983434677
1742766304069655800,1.12065576171875,10.141380310058594,-0.6167500615119934,0.857228696346283
1742766304072039700,1.123039794921875,10.202397346496582,-0.4624129831790924,1.5104693174362183
1742766304074450200,1.1254501953125,10.746166229248047,-0.30987054109573364,0.7004988193511963
1742766304076847600,1.12784765625,11.168499946594238,-0.38644084334373474,-0.21415762603282928
1742766304079244800,1.130244873046875,10.162318229675293,-0.40797626972198486,0.03529413416981697
1742766304081642000,1.13264208984375,9.332008361816406,0.12442677468061447,0.054436713457107544
1742766304084039200,1.1350390625,8.508278846740723,0.8691928386688232,-0.5072783827781677
1742766304086436600,1.1374365234375,8.641678810119629,0.9750752449035645,-0.511465847492218
1742766304088833800,1.139833740234375,9.651450157165527,0.6550351977348328,0.15134602785110474
1742766304091231000,1.14223095703125,10.543972969055176,0.6041877269744873,0.8919246196746826
1742766304093628200,1.144628173828125,10.609177589416504,0.33858439326286316,0.8279166221618652
1742766304096025600,1.147025634765625,9.506684303283691,-0.5234299302101135,-0.22552353143692017
1742766304098422800,1.1494228515625,8.476573944091797,-0.9332008361816406,-0.37806597352027893
1742766304100820200,1.1518203125,8.603992462158203,-0.33738797903060913,-0.3278166949748993
1742766304103217400,1.154217529296875,9.582656860351562,0.7357929348945618,-1.0001999139785767
1742766304105614600,1.156614501953125,10.590633392333984,1.054038405418396,-0.7489534616470337
1742766304108011800,1.15901171875,10.895119667053223,0.4875376224517822,0.19980068504810333
1742766304110409200,1.1614091796875,10.235897064208984,-0.11724831163883209,0.012562318705022335
1742766304112806400,1.163806396484375,9.497711181640625,0.23808585107326508,-0.5790630578994751
1742766304115203600,1.16620361328125,10.032506942749023,0.007178467698395252,-0.6765705943107605
1742766304117600800,1.168600830078125,10.96451187133789,-0.9547362327575684,-0.18843477964401245
1742766304119998200,1.170998291015625,11.172687530517578,-1.1395817995071411,0.17168502509593964
1742766304122395400,1.1733955078125,10.733604431152344,-0.5473581552505493,-0.28594231605529785
1742766304124792600,1.17579248046875,10.425528526306152,-0.4055834412574768,-0.8560323119163513
1742766304127190000,1.17818994140625,10.61097240447998,-0.6508477330207825,0.17587246000766754
1742766304129573600,1.18057373046875,11.021341323852539,-0.02273181453347206,1.7868403196334839
1742766304131984400,1.182984375,10.811968803405762,0.6095715761184692,1.3052847385406494
1742766304134381600,1.185381591796875,9.600004196166992,0.11844471842050552,-0.07477571070194244
1742766304136779000,1.187779052734375,9.912267684936523,0.12622138857841492,0.005383851006627083
1742766304139176200,1.19017626953125,11.45563793182373,0.06400800496339798,0.5724828243255615
1742766304141573400,1.192573486328125,11.36650562286377,-0.10827522724866867,-0.33798620104789734
1742766304143957200,1.194957275390625,8.967103004455566,0.9720842242240906,-1.1928220987319946
1742766304146368000,1.197367919921875,7.336992263793945,1.4261223077774048,-0.486939400434494
1742766304148765200,1.19976513671875,8.008777618408203,0.18305093050003052,0.7046862840652466
1742766304151162400,1.202162353515625,9.259027481079102,-0.18723836541175842,0.5048855543136597
1742766304153559800,1.204559814453125,8.889336585998535,0.6604190468788147,-0.7561319470405579
1742766304155957000,1.20695703125,8.325227737426758,0.4893322288990021,-0.9798609018325806
1742766304158354200,1.209354248046875,8.812167167663574,0.35473597049713135,0.2799602448940277
1742766304160751400,1.21175146484375,10.040882110595703,0.2069791555404663,1.2526426315307617
1742766304163148800,1.214148681640625,10.159326553344727,-0.5234299302101135,0.2727817893028259
1742766304165532700,1.21653271484375,9.591629981994629,-0.8404789566993713,-1.2747762203216553
1742766304167943200,1.218943115234375,9.013762474060059,0.25363919138908386,-0.9397810697555542
1742766304170340400,1.22134033203125,8.70209789276123,0.3529413342475891,0.4139583110809326
1742766304172737800,1.22373779296875,8.088338851928711,-0.09152546525001526,-0.3206382393836975
1742766304175135000,1.226135009765625,7.451848030090332,0.1782652884721756,-1.5128620862960815
1742766304177532200,1.2285322265625,9.05444049835205,0.039481572806835175,-0.6981059908866882
1742766304179916000,1.230916015625,12.399606704711914,-1.1425727605819702,0.6352944374084473
1742766304182326800,1.233326904296875,14.184054374694824,-1.332203984260559,0.6825526356697083
1742766304184724000,1.235723876953125,12.256635665893555,-0.778863787651062,0.7423732280731201
1742766304187121200,1.23812109375,10.177870750427246,-0.46420758962631226,0.9014959335327148
1742766304189518600,1.2405185546875,10.149755477905273,-0.11485548317432404,0.3080759048461914
1742766304191915800,1.242915771484375,11.609376907348633,0.8536394834518433,-0.2763710021972656
1742766304194313000,1.24531298828125,11.59262752532959,1.0211371183395386,-0.5653043389320374
1742766304196710100,1.247710205078125,10.396814346313477,0.4205385744571686,-0.8279166221618652
1742766304199107600,1.250107666015625,9.270991325378418,1.2095718383789062,-0.544965386390686
1742766304201504800,1.2525048828125,10.434501647949219,1.3519448041915894,0.14356936514377594
1742766304203902000,1.25490185546875,11.999407768249512,-0.9128618240356445,0.34277185797691345
1742766304206299400,1.25729931640625,11.925230026245117,-1.591825246810913,0.13459627330303192
1742766304208696600,1.259696533203125,9.722636222839355,0.7513462901115417,0.004187439568340778
1742766304211093800,1.26209375,7.892127513885498,1.1359925270080566,-0.09930214285850525
1742766304213491000,1.264490966796875,8.401798248291016,0.1698904037475586,0.37088751792907715
1742766304215888400,1.266888427734375,9.748359680175781,0.649053156375885,0.5461617708206177
1742766304218285600,1.26928564453125,9.45464038848877,0.6795616149902344,-0.4103690981864929
1742766304220682800,1.271682861328125,8.0291166305542,0.03409772366285324,-0.8482556343078613
1742766304223080000,1.274079833984375,8.435297966003418,0.16271193325519562,-0.06281159073114395
1742766304225477400,1.276477294921875,10.41476058959961,-0.6915257573127747,0.2709871530532837
1742766304227874600,1.27887451171875,11.534601211547852,-1.389033555984497,-0.3732803463935852
1742766304230271700,1.281271728515625,10.468000411987305,-0.36729827523231506,-0.7986045479774475
1742766304232669200,1.283669189453125,7.778468132019043,-0.18783657252788544,0.1986042857170105
1742766304235066400,1.28606640625,7.201199531555176,-0.8267202377319336,1.339382529258728
1742766304237463600,1.288463623046875,8.794221878051758,-0.5509474277496338,1.0372886657714844
1742766304239861000,1.290861083984375,10.340582847595215,0.3535395562648773,0.08614161610603333
1742766304242258200,1.293258056640625,10.841280937194824,0.08075776696205139,-0.38285163044929504
1742766304244655400,1.2956552734375,10.866405487060547,0.02871387079358101,-0.3314059376716614
1742766304247052500,1.298052490234375,11.520842552185059,0.1824527233839035,-0.2745763957500458
1742766304249450000,1.300449951171875,12.166306495666504,-0.46420758962631226,-0.5557330846786499
1742766304251833900,1.302833740234375,12.099308013916016,-0.5108676552772522,-0.8554341197013855
1742766304254244400,1.305244384765625,9.934401512145996,0.6873382925987244,-0.039481572806835175
1742766304256641800,1.307641845703125,8.380263328552246,1.2442678213119507,1.1048858165740967
1742766304259025400,1.310025390625,8.124829292297363,0.4941178858280182,0.5156532526016235
1742766304261436200,1.312436279296875,8.46879768371582,0.5138586759567261,-0.8608179688453674
1742766304263833300,1.314833251953125,9.305088996887207,1.542174220085144,-1.3525429964065552
1742766304266230800,1.317230712890625,10.039087295532227,0.706480860710144,-0.8255237936973572
1742766304268628000,1.3196279296875,11.0171537399292,-0.5515456199645996,0.18484555184841156
1742766304271025200,1.322025146484375,11.722437858581543,-0.18544375896453857,0.6275177597999573
1742766304273409000,1.324408935546875,11.71406364440918,-0.7561319470405579,-0.1746760457754135
1742766304275819800,1.32681982421875,10.944770812988281,-0.9427721500396729,-0.7549355626106262
1742766304278217000,1.329217041015625,9.1112699508667,0.12263216078281403,-0.16450655460357666
1742766304280600800,1.331600830078125,7.284948348999023,0.17706887423992157,0.22073788940906525
1742766304283011600,1.334011474609375,6.467201232910156,0.04785645380616188,-0.35892340540885925
1742766304285408800,1.33640869140625,7.144968509674072,0.20877377688884735,-0.7214360237121582
1742766304287806000,1.338805908203125,9.970891952514648,-0.4295116662979126,0.07357929646968842
1742766304290203100,1.341203125,13.624134063720703,-0.9595218896865845,0.8380861282348633
1742766304292600600,1.3436005859375,13.054043769836426,-0.5886343717575073,0.6275177597999573
1742766304294997800,1.345997802734375,9.277571678161621,0.29371899366378784,0.259621262550354
1742766304297395000,1.34839501953125,6.850052833557129,0.9002995491027832,0.09690931439399719
1742766304299792100,1.350792236328125,6.80877685546875,0.771087110042572,0.23449662327766418
1742766304302189600,1.353189453125,8.21276569366455,0.3577269911766052,0.38644084334373474
1742766304304586800,1.355586669921875,8.069794654846191,0.27337998151779175,-0.22791635990142822
1742766304306984000,1.35798388671875,7.197610378265381,0.6622136831283569,-0.9236295223236084
1742766304309381400,1.36038134765625,7.8526458740234375,1.217348575592041,-0.40378883481025696
1742766304311778600,1.362778564453125,10.541580200195312,0.3361915946006775,0.1950150430202484
1742766304314175700,1.36517578125,12.495918273925781,-0.8045865893363953,-0.2727817893028259
1742766304316559600,1.3675595703125,12.230913162231445,0.1178465187549591,-1.0097711086273193
1742766304318970400,1.369970458984375,10.438689231872559,0.9146564602851868,-0.763310432434082
1742766304321367600,1.372367431640625,8.7176513671875,0.25782662630081177,0.4701896607875824
1742766304323751400,1.37475146484375,7.142575740814209,0.11485548317432404,1.077966570854187
1742766304326162000,1.377161865234375,7.433303356170654,0.21655045449733734,0.31106695532798767
1742766304328559400,1.379559326171875,10.528419494628906,0.22193430364131927,-0.7668996453285217
1742766304330943200,1.381943115234375,12.902697563171387,0.05623133108019829,-0.49292147159576416
1742766304333353700,1.384353759765625,12.729218482971191,-0.6897311210632324,0.22791635990142822
1742766304335751200,1.386751220703125,10.584053039550781,-1.2532408237457275,-0.20817556977272034
1742766304338148400,1.3891484375,9.214759826660156,-0.12801600992679596,-1.0372886657714844
1742766304340545500,1.391545654296875,8.141578674316406,0.2602194547653198,-0.3044866919517517
1742766304342942700,1.393942626953125,8.356932640075684,-0.9218349456787109,1.0031908750534058
1742766304345340200,1.396340087890625,9.828518867492676,-0.49172505736351013,0.8398807644844055
1742766304347737300,1.3987373046875,10.842477798461914,0.8255237936973572,-0.0933200865983963
1742766304350134500,1.401134521484375,10.889137268066406,0.16031911969184875,0.012562318705022335
1742766304352532000,1.403531982421875,10.63669490814209,-0.4181457459926605,0.17706887423992157
1742766304354929200,1.40592919921875,9.704689979553223,0.17647066712379456,-0.14656038582324982
1742766304357326300,1.408326416015625,9.729216575622559,0.6107679605484009,-0.37806597352027893
1742766304359723500,1.4107236328125,9.990034103393555,0.4043870270252228,-0.355932354927063
1742766304362121000,1.413120849609375,9.233304023742676,0.36670008301734924,-0.13459627330303192
1742766304364518100,1.41551806640625,9.31466007232666,1.179063320159912,0.031106693670153618
1742766304366915300,1.417915283203125,9.81535816192627,0.9954141974449158,-0.20398813486099243
1742766304369312500,1.4203125,8.496315002441406,-0.6095715761184692,-0.36729827523231506
1742766304371710000,1.4227099609375,6.902695178985596,-0.7148557901382446,0.1788634955883026
1742766304374107100,1.425107177734375,8.124231338500977,0.18364913761615753,0.7806583642959595
1742766304376504300,1.42750439453125,10.965707778930664,-0.18125630915164948,1.0199406147003174
1742766304378901800,1.42990185546875,11.392229080200195,-0.24406790733337402,0.30927231907844543
1742766304381299000,1.432298828125,9.004789352416992,0.19621145725250244,-0.8877372145652771
1742766304383696100,1.434696044921875,7.135995388031006,0.13998012244701385,-1.1736794710159302
1742766304386093300,1.43709326171875,7.6636128425598145,-0.24287149310112,-0.3774677813053131
1742766304388490800,1.43949072265625,9.45464038848877,-0.5419743061065674,0.5736792087554932
1742766304390888000,1.441887939453125,10.339386940002441,-0.3798605799674988,0.46779683232307434
1742766304393285000,1.44428515625,10.305289268493652,0.02871387079358101,-0.6675975322723389
1742766304395682600,1.4466826171875,10.108479499816895,0.064606212079525,-0.6574280261993408
1742766304398079700,1.449079833984375,9.176474571228027,-0.48873403668403625,0.7603194117546082
1742766304400477000,1.451476806640625,8.497511863708496,-0.6161518096923828,1.028315544128418
1742766304402874000,1.4538740234375,9.145368576049805,0.1136590763926506,-0.16929219663143158
1742766304405271600,1.456271484375,10.815558433532715,0.2153540402650833,-0.7585247755050659
1742766304407668700,1.458668701171875,11.33360481262207,-0.14297115802764893,-0.1704886108636856
1742766304410066000,1.46106591796875,10.491929054260254,0.07537391036748886,-0.06281159073114395
1742766304412463000,1.463463134765625,9.974481582641602,0.47796630859375,-0.7692924737930298
1742766304414860500,1.465860595703125,10.84726333618164,0.8937192559242249,-0.35054850578308105
1742766304417257700,1.4682578125,10.929217338562012,0.0526420995593071,0.735194742679596
1742766304419655000,1.470655029296875,9.854242324829102,-0.6735795736312866,0.2913261651992798
1742766304422052400,1.47305224609375,8.803792953491211,0.20937198400497437,-1.0109676122665405
1742766304424436200,1.475436279296875,7.995018482208252,0.5006981492042542,-1.1312068700790405
1742766304426846700,1.4778466796875,8.458029747009277,-0.16031911969184875,-0.031106693670153618
1742766304429244000,1.480243896484375,8.962915420532227,0.15134602785110474,0.4546363055706024
1742766304431641300,1.482641357421875,9.282955169677734,0.6143572330474854,-0.11904292553663254
1742766304434038500,1.48503857421875,9.581459999084473,0.8901300430297852,-0.5234299302101135
1742766304436435700,1.487435791015625,9.41037368774414,0.37866419553756714,-0.259621262550354
1742766304438833000,1.4898330078125,8.835497856140137,-0.46061834692955017,0.07118647545576096
1742766304441230300,1.492230224609375,8.770891189575195,-0.641276478767395,-0.029312077909708023
1742766304443627500,1.49462744140625,10.027721405029297,-0.3607180118560791,-0.26440688967704773
1742766304446011400,1.497011474609375,11.371291160583496,-0.5593222975730896,-0.397208571434021
1742766304448422100,1.499422119140625,10.817951202392578,-0.3684946894645691,-0.7663014531135559
1742766304450819300,1.5018193359375,9.10229778289795,0.04187439754605293,-1.0791629552841187
1742766304453203200,1.504203125,8.030911445617676,0.28115665912628174,-0.9469595551490784
1742766304455613700,1.50661376953125,8.25105094909668,0.31824541091918945,-0.23270200192928314
1742766304458011100,1.50901123046875,9.111868858337402,-0.24466611444950104,1.2095718383789062
1742766304460395000,1.51139501953125,11.289935111999512,-0.43968117237091064,2.1990039348602295
1742766304462805500,1.513805419921875,13.615758895874023,-0.21415762603282928,1.0474581718444824
1742766304465202700,1.51620263671875,13.265210151672363,-0.16809579730033875,-0.4043870270252228
1742766304467600100,1.51860009765625,10.022337913513184,-0.3128615617752075,-0.32123643159866333
1742766304469997300,1.520997314453125,6.5282182693481445,0.17527425289154053,-0.053240302950143814
1742766304472394500,1.52339453125,6.290132522583008,1.197009563446045,-0.6239284873008728
1742766304474778400,1.5257783203125,8.178069114685059,1.638485312461853,-1.0827522277832031
1742766304477189000,1.528189208984375,9.157930374145508,0.6484549641609192,-0.6430711150169373
1742766304479586300,1.53058642578125,10.258030891418457,-0.34277185797691345,0.511465847492218
1742766304481970200,1.53297021484375,12.28415298461914,0.15672987699508667,0.9188438653945923
1742766304484381000,1.535380859375,12.803396224975586,0.3798605799674988,0.2949153780937195
1742766304486778000,1.537778076171875,10.674980163574219,-0.8273184299468994,0.29371899366378784
1742766304489162000,1.540161865234375,7.9585280418396,-0.859621524810791,0
1742766304491572500,1.542572509765625,7.197610378265381,0.6317051649093628,-1.4524433612823486
1742766304493970000,1.544969970703125,7.789236068725586,0.8141579031944275,-2.4909284114837646
1742766304496367000,1.5473671875,8.564510345458984,-0.3086741268634796,-1.475175142288208
1742766304498764300,1.549764404296875,10.327422142028809,-0.5515456199645996,0.5718846321105957
1742766304501161700,1.55216162109375,12.455838203430176,-0.18903298676013947,1.064207911491394
1742766304503545600,1.554545654296875,14.045270919799805,-0.12801600992679596,-0.1339980661869049
1742766304505956000,1.5569560546875,12.76630687713623,-1.374078392982483,0.2763710021972656
1742766304508353300,1.559353271484375,10.467402458190918,-1.8556339740753174,1.3698909282684326
1742766304510750700,1.561750732421875,9.32722282409668,-0.30927231907844543,0.2757728099822998
1742766304513148000,1.56414794921875,8.37547779083252,0.7100701332092285,-1.378864049911499
1742766304515545000,1.566545166015625,7.445865631103516,-0.08195417374372482,-0.7663014531135559
1742766304517929000,1.568928955078125,8.23011302947998,-0.29431718587875366,0.6400800347328186
1742766304520339700,1.571339599609375,10.573883056640625,0.4863412082195282,0.7339983582496643
1742766304522737000,1.57373681640625,12.711870193481445,0.8368897438049316,-0.24047867953777313
1742766304525120800,1.576120849609375,11.744571685791016,-0.04905286431312561,0.062213387340307236
1742766304527531500,1.578531494140625,10.328619003295898,-0.25423741340637207,1.007378339767456
1742766304529928700,1.5809287109375,10.929815292358398,1.1826525926589966,-0.08195417374372482
1742766304532312600,1.5833125,10.887343406677246,1.4877375364303589,-2.2372891902923584
1742766304534723300,1.585723388671875,8.82652473449707,-0.1459621787071228,-2.1744775772094727
1742766304537120500,1.58812060546875,7.27537727355957,-0.6556333899497986,-0.373878538608551
1742766304539504400,1.59050439453125,7.989036560058594,0.268594354391098,0.5910272002220154
1742766304541915000,1.592914794921875,9.735796928405762,0.46420758962631226,0.4450650215148926
1742766304544312300,1.595312255859375,10.481161117553711,-0.18843477964401245,0.5497509837150574
1742766304546709500,1.59770947265625,11.026126861572266,-0.8644071817398071,0.9690931439399719
1742766304549106700,1.600106689453125,12.029915809631348,-0.6370890140533447,0.4295116662979126
1742766304551504100,1.602504150390625,11.56570816040039,0.030508488416671753,-1.103689432144165
1742766304553887700,1.6048876953125,8.866005897521973,-0.24167509377002716,-1.9794625043869019
1742766304556298500,1.607298583984375,6.549753665924072,-0.9194421172142029,-1.5541383028030396
1742766304558695700,1.60969580078125,7.276573657989502,0.06580262631177902,-0.355932354927063
1742766304561093000,1.612093017578125,9.963115692138672,0.7190431952476501,0.3888336718082428
1742766304563490300,1.614490234375,11.534003257751465,-0.4624129831790924,0.5982056856155396
1742766304565887500,1.616887451171875,11.687742233276367,-0.49651068449020386,1.1599208116531372
1742766304568271400,1.619271240234375,11.10748291015625,0.42711883783340454,1.3752747774124146
1742766304570682000,1.62168212890625,9.806385040283203,0.13998012244701385,-0.1657029688358307
1742766304573079300,1.624079345703125,8.429315567016602,0.18544375896453857,-1.8909281492233276
1742766304575463200,1.626463134765625,7.420143127441406,0.4498506486415863,-1.6636099815368652
1742766304577874000,1.6288740234375,8.230711936950684,0.03170489892363548,-0.0005982056609354913
1742766304580271000,1.63127099609375,9.507282257080078,0.3068794906139374,0.9260223507881165
1742766304582668300,1.633668212890625,10.204790115356445,0.9206385016441345,0.39900317788124084
1742766304585065500,1.6360654296875,10.430912017822266,0.380458801984787,-0.2949153780937195
1742766304587463000,1.638462890625,10.746166229248047,0.4540380835533142,-0.08075776696205139
1742766304589860000,1.640860107421875,10.430314064025879,0.8955138921737671,0.24107688665390015
1742766304592257300,1.64325732421875,10.068399429321289,0.25722843408584595,-0.2566302418708801
1742766304594654500,1.645654541015625,10.98724365234375,-0.06281159073114395,-0.836291491985321
1742766304597052000,1.648052001953125,11.10209846496582,-0.019142581149935722,-0.6604190468788147
1742766304599449000,1.650448974609375,9.43190860748291,-0.22851456701755524,-0.3720839321613312
1742766304601846300,1.65284619140625,8.062017440795898,-0.3152543902397156,-0.24526432156562805
1742766304604230100,1.655230224609375,7.993224143981934,-0.13160525262355804,-0.11066804826259613
1742766304606641000,1.657640869140625,9.235696792602539,0.17527425289154053,0.035892341285943985
1742766304609038000,1.6600380859375,9.976874351501465,0.29790642857551575,-0.07956135272979736
1742766304611435300,1.662435302734375,9.89850902557373,0.04307080805301666,-0.5144568681716919
1742766304613832700,1.664832763671875,9.772287368774414,-0.22791635990142822,-0.7345965504646301
1742766304616230000,1.66722998046875,9.602396965026855,-0.48813581466674805,-0.4307080805301666
1742766304618627000,1.669626953125,9.876974105834961,-0.576670229434967,-0.064606212079525
1742766304621024300,1.672024169921875,9.723235130310059,-0.11425728350877762,0.12801600992679596
1742766304623421700,1.674421630859375,9.632308006286621,0.24526432156562805,0.22073788940906525
1742766304625819000,1.67681884765625,10.25324535369873,0.4612165689468384,0.2967100143432617
1742766304628216000,1.679216064453125,11.041081428527832,0.7022934556007385,0.28175488114356995
1742766304630613500,1.681613525390625,10.363913536071777,-0.01734796352684498,0.18424734473228455
1742766304633010700,1.6840107421875,9.181859016418457,-0.15493527054786682,-0.5282155871391296
1742766304635408000,1.686407958984375,7.4847493171691895,0.7046862840652466,-1.195214867591858
1742766304637805000,1.68880517578125,7.530212879180908,0.4905286431312561,-0.9774680733680725
1742766304640202500,1.691202392578125,10.12881851196289,-0.020338991656899452,-0.6484549641609192
1742766304642599700,1.693599609375,12.993624687194824,0.4713860750198364,-0.6095715761184692
1742766304644996900,1.695996826171875,13.47877025604248,0.005383851006627083,-0.4325026869773865
1742766304647394000,1.69839404296875,11.395219802856445,-0.503689169883728,0.017946170642971992
1742766304649791500,1.70079150390625,8.211568832397461,0.04307080805301666,0.5419743061065674
1742766304652188700,1.703188720703125,6.069993019104004,0.4103690981864929,0.486939400434494
1742766304654572500,1.705572509765625,6.594619274139404,0.2309073805809021,-0.5533402562141418
1742766304656983300,1.7079833984375,8.790034294128418,-0.3032902777194977,-1.1515458822250366
1742766304659380500,1.71038037109375,10.204192161560059,-0.7322037220001221,-0.6472585201263428
1742766304661777700,1.712777587890625,9.804591178894043,-0.5186443328857422,-0.4408775866031647
1742766304664175000,1.715175048828125,8.922237396240234,-0.1136590763926506,-0.7178468108177185
1742766304666572300,1.717572265625,8.621339797973633,-0.18484555184841156,-0.48873403668403625
1742766304668969500,1.719969482421875,9.241081237792969,-0.31465616822242737,0.20458634197711945
1742766304671366700,1.72236669921875,11.037492752075195,0.17527425289154053,0.23629122972488403
1742766304673764000,1.72476416015625,11.832508087158203,0.5940182209014893,-0.03469592705368996
1742766304676161300,1.727161376953125,11.063215255737305,-0.3978067636489868,-0.02392822690308094
1742766304678558500,1.729558349609375,10.06421184539795,-1.0289137363433838,0.355932354927063
1742766304680956000,1.731955810546875,10.01456069946289,-0.4301098585128784,0.32602208852767944
1742766304683353000,1.73435302734375,10.24487018585205,-0.11605189740657806,-0.2638086974620819
1742766304685750300,1.736750244140625,9.911669731140137,-0.25722843408584595,-0.33020952343940735
1742766304688147500,1.7391474609375,9.716055870056152,0.019740786403417587,-0.04247260093688965
1742766304690545000,1.741544921875,10.393823623657227,0.7202396392822266,0.04546362906694412
1742766304692942000,1.743942138671875,10.87717342376709,0.35114672780036926,-0.21954147517681122
1742766304695339300,1.74633935546875,9.741779327392578,-0.4863412082195282,-0.38344982266426086
1742766304697736400,1.748736328125,9.125627517700195,0.12382857501506805,-0.29312077164649963
1742766304700134000,1.7511337890625,9.832706451416016,0.3355933725833893,-0.35114672780036926
1742766304702531000,1.753531005859375,11.142178535461426,0.22193430364131927,-0.4450650215148926
1742766304704928300,1.75592822265625,10.526026725769043,0.44327038526535034,-0.3188436031341553
1742766304707325700,1.75832568359375,8.417949676513672,0.3966103494167328,-0.25722843408584595
1742766304709723000,1.760722900390625,6.951747894287109,0.8045865893363953,-0.47976094484329224
1742766304712106800,1.763106689453125,6.069993019104004,0.4007977843284607,-0.40378883481025696
1742766304714517200,1.765517333984375,6.63051176071167,-0.8159525394439697,-0.27816563844680786
1742766304716914700,1.767914794921875,8.429315567016602,-0.6089733839035034,-0.6095715761184692
1742766304719312000,1.770311767578125,9.967302322387695,-0.1495514214038849,-0.8679963946342468
1742766304721709000,1.772708984375,10.898709297180176,-0.6771687865257263,-0.5724828243255615
1742766304724106200,1.775106201171875,11.00997543334961,-0.7812566161155701,-0.544965386390686
1742766304726503700,1.777503662109375,10.565508842468262,-0.0687936544418335,-0.4833501875400543
1742766304728900900,1.77990087890625,10.192228317260742,0.33379876613616943,-0.061016976833343506
1742766304731298000,1.782298095703125,9.56770133972168,0.030508488416671753,0.3242274820804596
1742766304733695500,1.784695556640625,9.258428573608398,-0.5587241053581238,0.7357929348945618
1742766304736092700,1.7870927734375,10.003793716430664,0.10049854964017868,0.6095715761184692
1742766304738489900,1.78948974609375,10.962119102478027,0.8703892230987549,-0.16450655460357666
1742766304740887000,1.791886962890625,10.627123832702637,0.0029910283628851175,-0.4163511395454407
1742766304743284500,1.794284423828125,9.266205787658691,-0.013160524889826775,-0.13698910176753998
1742766304745681700,1.796681640625,8.395816802978516,0.6640082597732544,-0.550349235534668
1742766304748078800,1.799078857421875,9.319445610046387,0.7435696125030518,-1.1994023323059082
1742766304750476000,1.80147607421875,10.39920711517334,0.607776939868927,-1.1934202909469604
1742766304752873500,1.80387353515625,10.214960098266602,0.39421752095222473,-0.6227321028709412
1742766304755270700,1.806270751953125,9.612566947937012,-0.1010967567563057,0.11425728350877762
1742766304757667800,1.808667724609375,10.48534870147705,0.2638086974620819,0.23330020904541016
1742766304760065300,1.811065185546875,10.887343406677246,0.31764721870422363,-0.11485548317432404
1742766304762462500,1.81346240234375,9.757930755615234,-0.6424728631973267,-0.4701896607875824
1742766304764859600,1.815859619140625,8.885746955871582,-0.2512463629245758,-0.9326026439666748
1742766304767256800,1.8182568359375,9.45583724975586,0.5407779216766357,-1.1629117727279663
1742766304769654300,1.820654296875,10.174880027770996,-0.2805584669113159,-0.8165507316589355
1742766304772051500,1.823051513671875,10.05284595489502,-0.4833501875400543,-0.3696911036968231
1742766304774448600,1.82544873046875,9.899106979370117,-0.42352959513664246,-0.3409772217273712
1742766304776845800,1.827845703125,10.998010635375977,-0.5539384484291077,-0.38225340843200684
1742766304779243300,1.8302431640625,11.659626960754395,-0.1824527233839035,-0.04785645380616188
1742766304781640400,1.832640380859375,10.590633392333984,-0.5527420043945312,0.4097708761692047
1742766304784037600,1.83503759765625,9.94397258758545,-0.542572557926178,0.7914260625839233
1742766304786435000,1.83743505859375,9.758528709411621,0.13698910176753998,0.3152543902397156
1742766304788832300,1.839832275390625,9.209376335144043,-0.0687936544418335,-0.5515456199645996
1742766304791216000,1.842216064453125,8.534600257873535,-0.20757736265659332,-0.8075776696205139
1742766304793626600,1.844626708984375,9.049057006835938,-0.2847459018230438,-0.4618147611618042
1742766304796024000,1.847024169921875,10.823933601379395,-0.47258245944976807,0.07178468257188797
1742766304798408000,1.849407958984375,11.606386184692383,-0.11545369029045105,0.7094719409942627
1742766304800818400,1.851818359375,11.120643615722656,0.07896314561367035,0.6209374666213989
1742766304803216000,1.8542158203125,10.414162635803223,0.15314064919948578,-0.5054838061332703
1742766304805613000,1.856613037109375,9.823135375976562,0.7160521745681763,-1.3148560523986816
1742766304808010200,1.85901025390625,9.681958198547363,0.8380861282348633,-1.2616157531738281
1742766304810407400,1.861407470703125,9.876974105834961,0.23808585107326508,-0.646660327911377
1742766304812804900,1.863804931640625,10.573883056640625,0.04666004329919815,0.2315055876970291
1742766304815202000,1.8662021484375,11.862418174743652,0.10289137065410614,0.3481557071208954
1742766304817599200,1.86859912109375,11.84985637664795,-0.4737788736820221,-0.2548356056213379
1742766304819996700,1.87099658203125,10.931610107421875,-0.21176479756832123,-0.5563312768936157
1742766304822393900,1.873393798828125,9.227920532226562,0.018544375896453857,0.039481572806835175
1742766304824791000,1.875791015625,8.270193099975586,-0.45284169912338257,0.09631111472845078
1742766304827188200,1.878188232421875,8.897710800170898,-0.47976094484329224,-0.7956135272979736
1742766304829585700,1.880585693359375,10.06421184539795,-0.26081767678260803,-1.1922239065170288
1742766304831982800,1.88298291015625,10.573883056640625,-0.7956135272979736,-0.5108676552772522
1742766304834380000,1.885380126953125,10.76530933380127,-0.32303106784820557,0.47198426723480225
1742766304836777500,1.887777587890625,10.5152587890625,0.16271193325519562,0.5988038778305054
1742766304839174700,1.890174560546875,10.143773078918457,-0.04366901144385338,0.2991028428077698
1742766304841571800,1.89257177734375,9.631111145019531,-0.054436713457107544,0.3810569941997528
1742766304843969000,1.894968994140625,8.812167167663574,-0.08015955984592438,-0.09810572862625122
1742766304846366500,1.897366455078125,8.244470596313477,0.4833501875400543,-0.8560323119163513
1742766304848750300,1.899750244140625,7.628318786621094,0.7268198728561401,-0.5964110493659973
1742766304851160800,1.902160888671875,7.742575645446777,0.025722842663526535,0.1950150430202484
1742766304853558000,1.90455810546875,8.727222442626953,-0.1381855010986328,0.877567708492279
1742766304855955500,1.90695556640625,10.353145599365234,0.5234299302101135,0.4773681163787842
1742766304858352600,1.9093525390625,11.23609733581543,0.753140926361084,-0.9613165259361267
1742766304860749800,1.911749755859375,10.572088241577148,0.5569294691085815,-1.0893324613571167
1742766304863147000,1.91414697265625,9.674181938171387,0.2925225794315338,-0.6173482537269592
1742766304865544400,1.91654443359375,9.277571678161621,0.2470589429140091,-0.9212366938591003
1742766304867941600,1.918941650390625,10.18026351928711,0.48454657196998596,-0.7980063557624817
1742766304870325500,1.921325439453125,11.225329399108887,0.11066804826259613,0.19262222945690155
1742766304872736300,1.923736328125,11.648261070251465,-0.8398807644844055,0.15314064919948578
1742766304875133400,1.926133544921875,10.358529090881348,-0.41515472531318665,-1.074377417564392
1742766304877517300,1.928517333984375,8.701499938964844,0.34217363595962524,-1.2287144660949707
1742766304879927800,1.930927734375,8.12662410736084,-0.503689169883728,-0.4414757788181305
1742766304882325200,1.9333251953125,9.509675025939941,-0.37926238775253296,-0.5252245664596558
1742766304884709000,1.935709228515625,11.427522659301758,0.36311084032058716,-1.368694543838501
1742766304887119600,1.93811962890625,12.718450546264648,-0.22492532432079315,-1.6456637382507324
1742766304889516800,1.940516845703125,12.453445434570312,-0.48813581466674805,-0.8273184299468994
1742766304891914200,1.942914306640625,11.349756240844727,-0.30628129839897156,0.23748764395713806
1742766304894311400,1.9453115234375,10.16889762878418,-0.50129634141922,0.6532405614852905
1742766304896708600,1.94770849609375,10.055238723754883,-0.24167509377002716,-0.2877369225025177
1742766304899106000,1.95010595703125,9.464211463928223,0.672383189201355,-0.9529415965080261
1742766304901503200,1.952503173828125,9.744172096252441,0.9475577473640442,-0.25244277715682983
1742766304903900400,1.954900390625,10.50209903717041,0.023330021649599075,-0.0011964113218709826
1742766304906297600,1.957297607421875,10.159326553344727,0.26919254660606384,-0.5186443328857422
1742766304908695000,1.959695068359375,8.673383712768555,0.714257538318634,-0.5126622319221497
1742766304911092200,1.96209228515625,8.441280364990234,0.43968117237091064,-0.2709871530532837
1742766304913489400,1.964489501953125,9.516854286193848,-0.1746760457754135,-0.5952146053314209
1742766304915886600,1.966886474609375,9.753743171691895,-0.32721850275993347,-0.9206385016441345
1742766304918284000,1.969283935546875,10.225129127502441,0.3451646566390991,-0.39960137009620667
1742766304920681200,1.97168115234375,11.01416301727295,0.13938191533088684,0.6215356588363647
1742766304923078400,1.974078369140625,10.727622032165527,-0.3415754437446594,1.3010972738265991
1742766304925475800,1.976475830078125,9.06401252746582,0.09571290761232376,0.43549370765686035
1742766304927859700,1.978859619140625,6.872186660766602,-0.22492532432079315,-0.9655039310455322
1742766304930270200,1.981270263671875,7.29810905456543,0.22133609652519226,-0.9690931439399719
1742766304932667400,1.98366748046875,9.138788223266602,0.26620152592658997,-0.24945175647735596
1742766304935064800,1.98606494140625,10.387243270874023,-0.8249256014823914,-0.753140926361084
1742766304937462000,1.9884619140625,10.238887786865234,-0.07118647545576096,-1.7485551834106445
1742766304939859200,1.990859130859375,9.268000602722168,0.6011967062950134,-1.3525429964065552
1742766304942256400,1.99325634765625,9.963713645935059,-0.6071787476539612,0.4342973232269287
1742766304944653800,1.99565380859375,11.735000610351562,-0.4295116662979126,1.069591760635376
1742766304947051000,1.998051025390625,11.417951583862305,-0.010169495828449726,0.129810631275177
1742766304949448200,2.0004482421875,9.678967475891113,-0.47976094484329224,0.035892341285943985
1742766304951845600,2.002845703125,7.941778182983398,-0.2225325107574463,0.8787640929222107
1742766304954242800,2.005242919921875,7.599604606628418,-0.039481572806835175,0.6376872062683105
1742766304956640000,2.007639892578125,9.429515838623047,-0.05623133108019829,-0.7657032608985901
1742766304959037400,2.010037353515625,12.064013481140137,0.4618147611618042,-1.6360924243927002
1742766304961434600,2.0124345703125,12.19202995300293,0.16031911969184875,-0.9804590940475464
1742766304963831800,2.014831787109375,10.542776107788086,-0.17647066712379456,0.07357929646968842
1742766304966229000,2.01722900390625,9.587442398071289,-0.03409772366285324,0.03409772366285324
1742766304968626400,2.01962646484375,10.752148628234863,-0.064606212079525,-0.9116654396057129
1742766304971023600,2.022023681640625,11.210373878479004,0.07058826833963394,-1.292722463607788
1742766304973420800,2.0244208984375,9.872187614440918,0.20518454909324646,-0.7513462901115417
1742766304975818200,2.026818359375,8.774480819702148,0.28115665912628174,-0.20997019112110138
1742766304978201900,2.029201904296875,8.678768157958984,0.6658028960227966,-0.3367897868156433
1742766304980612600,2.031612548828125,9.267401695251465,0.7178468108177185,-0.9284151792526245
1742766304983009800,2.034009765625,9.559925079345703,-0.1698904037475586,-1.4524433612823486
1742766304985407200,2.0364072265625,9.442078590393066,-0.3314059376716614,-0.7914260625839233
1742766304987804400,2.038804443359375,9.845867156982422,-0.33738797903060913,0.37447673082351685
1742766304990201600,2.04120166015625,9.858428955078125,-0.5982056856155396,0.3966103494167328
1742766304992598800,2.043598876953125,9.106484413146973,-0.251844584941864,-0.2183450609445572
1742766304994996200,2.045996337890625,8.14636516571045,-0.15314064919948578,-0.23988047242164612
1742766304997393400,2.048393310546875,8.368298530578613,-0.26500511169433594,-0.13100704550743103
1742766304999790600,2.05079052734375,9.110671997070312,0.6059823632240295,-0.7334001660346985
1742766305002188000,2.05318798828125,9.092127799987793,0.529412031173706,-0.719641387462616
1742766305004585200,2.055585205078125,9.764511108398438,-0.3565305769443512,0.20757736265659332
1742766305006969000,2.057968994140625,11.164910316467285,-0.038285162299871445,0.43489551544189453
1742766305009379600,2.060379638671875,11.436495780944824,0.07657032459974289,-0.17946170270442963
1742766305011777000,2.062777099609375,10.491331100463867,-0.26500511169433594,-0.28893333673477173
1742766305014174200,2.06517431640625,9.57188892364502,0.08374879509210587,0.10588239878416061
1742766305016571400,2.0675712890625,9.302696228027344,0.589830756187439,0.028115665540099144
1742766305018968600,2.069968505859375,8.898907661437988,0.6897311210632324,-0.8135597109794617
1742766305021352700,2.072352783203125,7.911868095397949,0.2069791555404663,-1.5852450132369995
1742766305023763200,2.07476318359375,7.331010341644287,-0.5330012440681458,-1.0917253494262695
1742766305026160400,2.077160400390625,9.404989242553711,0.44386860728263855,0.050847481936216354
1742766305028544300,2.079544189453125,12.41695499420166,0.6610172390937805,0.13100704550743103
1742766305030955000,2.081955078125,13.05224895477295,-0.41934216022491455,-0.052043892443180084
1742766305033352200,2.084352294921875,11.195419311523438,-0.18424734473228455,0.25782662630081177
1742766305035736000,2.086736083984375,8.525029182434082,0.259621262550354,-0.30568310618400574
1742766305038146800,2.089146728515625,7.365108013153076,0.24825534224510193,-1.4452649354934692
1742766305040544000,2.0915439453125,7.192226886749268,0.25722843408584595,-1.7874385118484497
1742766305042941200,2.093941162109375,8.770891189575195,-0.7208378314971924,-1.2484551668167114
1742766305045338400,2.09633837890625,11.24327564239502,-1.090528964996338,-0.8799605369567871
1742766305047735800,2.09873583984375,13.389039039611816,-0.13100704550743103,-0.9038887619972229
1742766305050119700,2.10111962890625,13.587044715881348,-0.6586244106292725,-0.4737788736820221
1742766305052530200,2.1035302734375,12.379866600036621,-1.1108678579330444,-0.06400800496339798
1742766305054927600,2.105927734375,10.594820022583008,0.3074777126312256,-0.6526423692703247
1742766305057311500,2.1083115234375,8.933603286743164,0.9990034699440002,-0.9068797826766968
1742766305059722000,2.110721923828125,8.187641143798828,0.03768695518374443,-0.2913261651992798
1742766305062119200,2.113119140625,8.594420433044434,-0.7387840151786804,0.0849452018737793
1742766305064516600,2.1155166015625,9.836894035339355,-0.017946170642971992,0.1333998590707779
1742766305066913800,2.117913818359375,10.898709297180176,0.2027917206287384,0.013160524889826775
1742766305069311000,2.12031103515625,10.101301193237305,-0.48095735907554626,0.27756741642951965
1742766305071694800,2.12269482421875,8.123034477233887,-0.12143574655056,1.0701899528503418
1742766305074105600,2.125105712890625,7.742575645446777,0.44805604219436646,1.311864972114563
1742766305076502800,2.127502685546875,8.92821979522705,0.6538388133049011,-0.21355941891670227
1742766305078886700,2.12988671875,8.681758880615234,0.7441678643226624,-1.7934205532073975
1742766305081297400,2.13229736328125,7.613363265991211,0.7399803996086121,-1.3100703954696655
1742766305083694600,2.134694580078125,8.054839134216309,0.3529413342475891,0.03469592705368996
1742766305086091800,2.137091796875,10.280762672424316,-0.27696922421455383,0.6592226624488831
1742766305088489000,2.139489013671875,12.245269775390625,-0.21176479756832123,0.4265206456184387
1742766305090886400,2.141886474609375,11.767901420593262,-0.4325026869773865,-0.12083754688501358
1742766305093283600,2.14428369140625,9.946365356445312,-0.7986045479774475,-0.3762713670730591
1742766305095680800,2.1466806640625,8.534600257873535,0.22372891008853912,-0.6628118753433228
1742766305098078000,2.149077880859375,7.579265594482422,0.39062830805778503,-0.9020941257476807
1742766305100462000,2.151462158203125,7.850851058959961,-0.7184450030326843,-0.8847461938858032
1742766305102872600,2.15387255859375,9.838688850402832,-1.0402796268463135,-0.7435696125030518
1742766305105269800,2.156269775390625,11.980862617492676,-1.0277173519134521,-0.43908295035362244
1742766305107653600,2.158653564453125,12.952947616577148,-1.4081761837005615,-0.20458634197711945
1742766305110064400,2.161064453125,12.503096580505371,-0.5886343717575073,-0.6047859191894531
1742766305112461600,2.163461669921875,11.238490104675293,0.20757736265659332,-0.16869398951530457
1742766305114858800,2.165858642578125,11.038688659667969,0.10767702013254166,0.3930211067199707
1742766305117256200,2.168256103515625,10.600204467773438,-0.1902294009923935,-0.8123632669448853
1742766305119653400,2.1706533203125,9.410971641540527,-0.16510476171970367,-1.7425731420516968
1742766305122050600,2.173050537109375,9.463613510131836,-0.12681959569454193,-0.7758727669715881
1742766305124448000,2.175447998046875,10.477572441101074,0.06640082597732544,-0.13878370821475983
1742766305126845200,2.17784521484375,10.076774597167969,0.33379876613616943,-0.40378883481025696
1742766305129242400,2.180242431640625,9.64367389678955,0.890728235244751,-0.5144568681716919
1742766305131639600,2.1826396484375,9.619745254516602,0.8709874153137207,-0.44745782017707825
1742766305134037000,2.185037109375,9.111868858337402,0.5060819983482361,-0.6580262184143066
1742766305136420900,2.1874208984375,7.801798343658447,0.6400800347328186,-0.8632107973098755
1742766305138831400,2.189831298828125,7.095317363739014,0.3762713670730591,-0.9110672473907471
1742766305141228800,2.192228759765625,7.555337429046631,-0.364905446767807,-0.029910283163189888
1742766305143612700,2.19461279296875,8.94556713104248,-0.40677985548973083,0.9475577473640442
1742766305146023200,2.197023193359375,10.549356460571289,-0.31046873331069946,0.3487538993358612
1742766305148420400,2.19942041015625,11.44666576385498,-0.45284169912338257,-0.6538388133049011
1742766305150817800,2.20181787109375,10.378868103027344,-0.09870393574237823,-0.6305087804794312
1742766305153215000,2.204215087890625,9.021539688110352,0.017946170642971992,-0.22193430364131927
1742766305155612200,2.206612060546875,8.25404167175293,0.04905286431312561,-0.5198407173156738
1742766305158009600,2.209009521484375,8.62193775177002,0.17347964644432068,-0.9535398483276367
1742766305160406800,2.21140673828125,10.717453002929688,-0.39062830805778503,-0.31405797600746155
1742766305162804000,2.213803955078125,12.005389213562012,-0.9858429431915283,0.7417750358581543
1742766305165187800,2.216187744140625,11.408978462219238,-0.4295116662979126,0.3367897868156433
1742766305167598600,2.2185986328125,9.667003631591797,-0.28235307335853577,-0.5156532526016235
1742766305169995800,2.220995849609375,8.606385231018066,-0.5330012440681458,-0.21415762603282928
1742766305172393000,2.22339306640625,9.479764938354492,-0.2626122832298279,-0.12442677468061447
1742766305174790100,2.2257900390625,11.204392433166504,0.22073788940906525,-0.9589236974716187
1742766305177187600,2.2281875,12.701102256774902,0.45104706287384033,-0.9326026439666748
1742766305179571500,2.230571533203125,12.77348518371582,0.4336991012096405,-0.15194423496723175
1742766305181982000,2.23298193359375,11.08893871307373,0.28953152894973755,0.26500511169433594
1742766305184379400,2.23537939453125,9.995418548583984,0.36191442608833313,-0.3415754437446594
1742766305186776600,2.237776611328125,9.91825008392334,0.34217363595962524,-1.5272190570831299
1742766305189173800,2.240173828125,9.273982048034668,0.10827522724866867,-1.674377679824829
1742766305191571000,2.242571044921875,9.123832702636719,0.2883351147174835,-0.8967102766036987
1742766305193968400,2.244968505859375,9.923633575439453,0.7471588850021362,-0.5724828243255615
1742766305196365600,2.247365478515625,10.85444164276123,0.6939185857772827,-0.31824541091918945
1742766305198762800,2.2497626953125,10.907083511352539,-0.12861421704292297,-0.11246266216039658
1742766305201160000,2.252159912109375,9.430113792419434,-0.5132604837417603,-0.4827519655227661
1742766305203557400,2.254557373046875,7.973483085632324,-0.5096712112426758,-0.5557330846786499
1742766305205954600,2.25695458984375,8.194221496582031,-0.15254244208335876,-0.19680966436862946
1742766305208351700,2.259351806640625,9.139984130859375,-0.26141586899757385,-0.14715859293937683
1742766305210749200,2.261749267578125,9.45882797241211,-0.5491527915000916,-0.8781659007072449
1742766305213146400,2.264146484375,9.083752632141113,0.022133609279990196,-1.007378339767456
1742766305215543600,2.26654345703125,9.326624870300293,-0.26620152592658997,0.20458634197711945
1742766305217940700,2.268940673828125,10.51645565032959,-1.1784651279449463,0.9116654396057129
1742766305220338200,2.271338134765625,11.242676734924316,-0.5874379873275757,0.2793620526790619
1742766305222735400,2.2737353515625,10.796415328979492,-0.12502498924732208,-0.07896314561367035
1742766305225132500,2.276132568359375,9.874580383300781,-0.37447673082351685,0.3451646566390991
1742766305227529700,2.27852978515625,9.117850303649902,-0.003589233849197626,0.5252245664596558
1742766305229927200,2.28092724609375,9.555737495422363,0.23988047242164612,0.24466611444950104
1742766305232324400,2.283324462890625,10.732407569885254,0.030508488416671753,-0.01136590726673603
1742766305234721500,2.285721435546875,10.925029754638672,-0.03409772366285324,-0.04546362906694412
1742766305237119000,2.288118896484375,9.995418548583984,0.35832518339157104,0.2632105052471161
1742766305239516200,2.29051611328125,9.81954574584961,0.6771687865257263,-0.1579262912273407
1742766305241913300,2.292913330078125,10.517651557922363,0.3236292600631714,-1.1569297313690186
1742766305244310500,2.295310546875,11.361122131347656,0.3242274820804596,-1.3782658576965332
1742766305246708000,2.2977080078125,11.11466121673584,0.5276173949241638,-0.6382854580879211
1742766305249105200,2.300105224609375,10.452447891235352,0.5796613097190857,-0.10767702013254166
1742766305251502300,2.30250244140625,9.738788604736328,0.19920247793197632,0.2105683982372284
1742766305253899500,2.3048994140625,9.095118522644043,-0.5066801905632019,0.3320041298866272
1742766305256297000,2.307296875,8.435297966003418,-0.7100701332092285,-0.32961133122444153
1742766305258680800,2.309680908203125,8.352147102355957,-0.5659025311470032,-0.8901300430297852
1742766305261091300,2.31209130859375,9.329017639160156,-0.06819544732570648,-0.4043870270252228
1742766305263488800,2.31448876953125,10.106086730957031,-0.09032905846834183,-0.04366901144385338
1742766305265886000,2.316885986328125,9.802796363830566,-0.389431893825531,-0.7495517134666443
1742766305268283100,2.319283203125,9.235098838806152,0.17168502509593964,-1.1497513055801392
1742766305270680300,2.321680419921875,9.32602596282959,0.2069791555404663,-0.3122633695602417
1742766305273077800,2.324077880859375,9.80399227142334,-0.47617170214653015,0.511465847492218
1742766305275475000,2.326474853515625,9.868000984191895,0.24167509377002716,0.5246263742446899
1742766305277872000,2.3288720703125,9.52941608428955,0.4546363055706024,0.07417750358581543
1742766305280269300,2.331269287109375,8.61475944519043,-0.4091726839542389,-0.29012975096702576
1742766305282666800,2.333666748046875,7.911269664764404,-0.08374879509210587,-0.33918261528015137
1742766305285064000,2.33606396484375,8.301898002624512,0.47976094484329224,-0.003589233849197626
1742766305287461000,2.338461181640625,9.551549911499023,0.18364913761615753,0.06819544732570648
1742766305289858600,2.340858642578125,10.314262390136719,0.5551348328590393,-0.26979073882102966
1742766305292255700,2.343255859375,10.119247436523438,0.8231309652328491,-0.24466611444950104
1742766305294653000,2.34565283203125,10.450055122375488,-0.02871387079358101,-0.2111666053533554
1742766305297050000,2.348050048828125,10.750951766967773,0.028115665540099144,-0.4546363055706024
1742766305299447600,2.350447509765625,10.393823623657227,0.6711867451667786,-0.5790630578994751
1742766305301844700,2.3528447265625,9.798608779907227,0.37926238775253296,-0.3936193287372589
1742766305304242000,2.355241943359375,10.3681001663208,0.4498506486415863,-0.05144568532705307
1742766305306639400,2.357639404296875,9.746564865112305,0.37148571014404297,0.025722842663526535
1742766305309036500,2.36003662109375,8.858827590942383,-0.4091726839542389,-0.6382854580879211
1742766305311433700,2.362433837890625,8.552546501159668,-0.5282155871391296,-1.2897313833236694
1742766305313831000,2.364830810546875,9.129216194152832,-0.20937198400497437,-1.085145115852356
1742766305316214800,2.36721484375,10.87717342376709,-0.04666004329919815,-0.4983053207397461
1742766305318625500,2.36962548828125,11.529815673828125,-0.17766708135604858,-0.3529413342475891
1742766305321022700,2.372022705078125,11.205588340759277,-0.29431718587875366,-0.4953143000602722
1742766305323420200,2.374420166015625,11.212766647338867,-0.07657032459974289,-0.3565305769443512
1742766305325817300,2.3768173828125,10.37228775024414,-0.32602208852767944,0.2111666053533554
1742766305328214500,2.379214599609375,8.956335067749023,-0.4899304509162903,0.48035913705825806
1742766305330598400,2.381598388671875,8.233104705810547,0.259621262550354,0.019142581149935722
1742766305333009200,2.384009033203125,8.61595630645752,0.30149564146995544,0.13280165195465088
1742766305335406300,2.38640625,10.506884574890137,-0.32183465361595154,0.6442674994468689
1742766305337803500,2.388803466796875,11.092527389526367,-0.43190449476242065,0.13280165195465088
1742766305340201000,2.391200927734375,9.652647018432617,0.0933200865983963,-0.7280163168907166
1742766305342598100,2.39359814453125,8.118846893310547,0.5653043389320374,-0.4743770956993103
1742766305344982000,2.39598193359375,7.587042331695557,0.6544370055198669,0.5653043389320374
1742766305347392500,2.398392578125,9.044271469116211,0.16031911969184875,0.8213363885879517
1742766305349790000,2.4007900390625,11.038688659667969,0.05503492057323456,-0.4743770956993103
1742766305352173800,2.403173828125,11.105688095092773,0.4366901218891144,-1.5296118259429932
1742766305354584300,2.405584228515625,10.015159606933594,0.26979073882102966,-1.079761266708374
1742766305356981500,2.4079814453125,8.776873588562012,0.039481572806835175,-0.3403790295124054
1742766305359379000,2.41037890625,8.682954788208008,0.3314059376716614,-0.02392822690308094
1742766305361776000,2.412776123046875,9.412766456604004,0.20039889216423035,0.24945175647735596
1742766305364173300,2.41517333984375,9.760921478271484,-0.4695914387702942,0.10707881301641464
1742766305366570800,2.41757080078125,9.273982048034668,-0.24586252868175507,-0.17108681797981262
1742766305368968000,2.419968017578125,8.562117576599121,-0.03409772366285324,-0.2883351147174835
1742766305371365000,2.422365234375,7.640881061553955,-0.31046873331069946,-0.2967100143432617
1742766305373749000,2.4247490234375,7.522436141967773,-0.003589233849197626,-0.15194423496723175
1742766305376159700,2.42715966796875,8.588438987731934,0.1501496136188507,-0.03888336941599846
1742766305378557000,2.429556884765625,10.560722351074219,-0.47916272282600403,-0.05623133108019829
1742766305380940800,2.43194091796875,12.233903884887695,-0.5240281820297241,0.11545369029045105
1742766305383351300,2.434351318359375,11.860025405883789,-0.10169496387243271,0.4091726839542389
1742766305385748700,2.436748779296875,9.965508460998535,0.08554340898990631,0.6143572330474854
1742766305388146000,2.43914599609375,8.552546501159668,-0.4546363055706024,0.22432711720466614
1742766305390543000,2.441543212890625,8.404789924621582,-0.5156532526016235,-0.3236292600631714
1742766305392940500,2.4439404296875,9.197412490844727,-0.25064817070961,-0.25244277715682983
1742766305395324400,2.446324462890625,10.993824005126953,-0.5988038778305054,0.13698910176753998
1742766305397735000,2.44873486328125,11.921042442321777,-0.4043870270252228,0.2356930375099182
1742766305400132000,2.451132080078125,11.303095817565918,0.40677985548973083,0.1417747437953949
1742766305402529500,2.453529541015625,9.834501266479492,0.6107679605484009,-0.14895321428775787
1742766305404926700,2.4559267578125,9.053244590759277,0.9708877801895142,-0.6837490797042847
1742766305407324000,2.458323974609375,7.855038642883301,1.4093725681304932,-0.7070791125297546
1742766305409707800,2.460707763671875,8.169694900512695,0.7399803996086121,-0.12083754688501358
1742766305412118500,2.463118408203125,9.621540069580078,-0.07417750358581543,0.5042873620986938
1742766305414515700,2.465515625,11.337791442871094,0.33798620104789734,0.5359922647476196
1742766305416913000,2.467912841796875,10.49252700805664,0.04127619042992592,0.13698910176753998
1742766305419310300,2.470310302734375,7.939385414123535,-0.4875376224517822,-0.24646073579788208
1742766305421707500,2.47270751953125,6.262615203857422,-0.11485548317432404,-0.5593222975730896
1742766305424091400,2.47509130859375,6.509674072265625,0.49651068449020386,-0.5706881880760193
1742766305426502000,2.477501953125,8.048258781433105,0.4749752879142761,-0.6317051649093628
1742766305428899300,2.4798994140625,8.897710800170898,-0.05563312768936157,-1.031306505203247
1742766305431296500,2.482296630859375,9.442676544189453,-0.36311084032058716,-0.9960124492645264
1742766305433693700,2.484693603515625,11.145768165588379,-0.47198426723480225,-0.31046873331069946
1742766305436091000,2.4870908203125,12.911072731018066,-0.6460621356964111,0.37507495284080505
1742766305438475000,2.48947509765625,13.056436538696289,-0.37866419553756714,0.4331009089946747
1742766305440885500,2.491885498046875,11.775080680847168,0.19800607860088348,0.08255238085985184
1742766305443282700,2.49428271484375,9.430712699890137,-0.17168502509593964,-0.3481557071208954
1742766305445666600,2.49666650390625,6.747759819030762,-0.6358926296234131,-0.6963114142417908
1742766305448077300,2.499077392578125,5.949155330657959,0.061016976833343506,-0.36251261830329895
1742766305450474500,2.501474609375,7.654639720916748,0.13878370821475983,0.22911277413368225
1742766305452858400,2.5038583984375,10.495518684387207,-0.19142581522464752,0.1543370634317398
1742766305455269000,2.50626904296875,12.19801139831543,0.503689169883728,-0.23629122972488403
1742766305457666300,2.508666259765625,11.968300819396973,0.5156532526016235,-0.18783657252788544
1742766305460063500,2.5110634765625,9.888937950134277,0.04007977992296219,-0.014356935396790504
1742766305462460700,2.513460693359375,8.23130989074707,0.3936193287372589,-0.04187439754605293
1742766305464858000,2.515858154296875,8.341978073120117,0.7668996453285217,-0.32602208852767944
1742766305467255300,2.51825537109375,9.527621269226074,0.5934200286865234,-0.11066804826259613
1742766305469652500,2.520652587890625,10.316056251525879,0.3684946894645691,0.014955141581594944
1742766305472050000,2.5230498046875,10.048060417175293,0.3720839321613312,-0.42711883783340454
1742766305474447000,2.525447021484375,9.776474952697754,-0.20937198400497437,-0.6771687865257263
1742766305476844300,2.52784423828125,9.486943244934082,-0.8548358678817749,-0.4989035129547119
1742766305479241700,2.53024169921875,9.766305923461914,-0.9595218896865845,0.09032905846834183
1742766305481639000,2.532638916015625,10.136594772338867,-0.2153540402650833,0.373878538608551
1742766305484036000,2.5350361328125,10.471590042114258,0.5712863802909851,-0.34636107087135315
1742766305486433300,2.537433349609375,10.718648910522461,-0.06939185410737991,-0.9547362327575684
1742766305488817200,2.539817138671875,11.297114372253418,-0.7465606927871704,-0.0975075215101242
1742766305491228000,2.542227783203125,11.703295707702637,-0.1908276081085205,0.7992027401924133
1742766305493625000,2.544625,9.807581901550293,-0.36610186100006104,0.40737804770469666
1742766305496009000,2.547009033203125,7.522436141967773,-0.39541393518447876,0.4127618968486786
1742766305498419700,2.549419677734375,7.530212879180908,0.17288143932819366,0.7202396392822266
1742766305500817000,2.55181689453125,8.71346378326416,-0.22791635990142822,-0.24167509377002716
1742766305503214000,2.554214111328125,9.635896682739258,-0.12921242415905,-0.8620143532752991
1742766305505611500,2.556611572265625,10.236495018005371,0.19740787148475647,-0.2955136001110077
1742766305508008700,2.5590087890625,10.517651557922363,-0.4713860750198364,0.1866401731967926
1742766305510406000,2.561406005859375,10.564909934997559,-0.007178467698395252,-0.4211367964744568
1742766305512803000,2.563802978515625,9.864411354064941,0.8464609980583191,-1.6528422832489014
1742766305515200500,2.566200439453125,8.905488014221191,0.47617170214653015,-1.8095721006393433
1742766305517597700,2.56859765625,9.043673515319824,0.5874379873275757,-0.9852447509765625
1742766305519995000,2.570994873046875,9.915258407592773,1.0582258701324463,-0.19920247793197632
1742766305522392000,2.57339208984375,10.700104713439941,0.35114672780036926,0.34277185797691345
1742766305524789500,2.57578955078125,10.961520195007324,-0.2841476798057556,0.7100701332092285
1742766305527186700,2.578186767578125,9.442078590393066,-0.29850462079048157,0.275174617767334
1742766305529583900,2.580583984375,7.428517818450928,-0.649053156375885,-0.39840495586395264
1742766305531967700,2.5829677734375,7.6289167404174805,-0.5706881880760193,-0.4504488706588745
1742766305534378500,2.58537841796875,9.714262008666992,-0.656829833984375,-0.5653043389320374
1742766305536775700,2.587775634765625,12.061022758483887,-0.49591249227523804,-1.1072787046432495
1742766305539159600,2.59015966796875,11.925230026245117,-0.04366901144385338,-1.6576279401779175
1742766305541570300,2.5925703125,9.623932838439941,-0.7734799385070801,-1.3704891204833984
1742766305543967500,2.594967529296875,9.275178909301758,-0.7507480978965759,0.13998012244701385
1742766305546351400,2.597351318359375,10.969895362854004,-0.14297115802764893,1.072582721710205
1742766305548761900,2.599761962890625,13.222738265991211,-0.20817556977272034,0.8147560954093933
1742766305551159300,2.6021591796875,13.798212051391602,0.15254244208335876,0.28175488114356995
1742766305553556500,2.604556396484375,11.270195007324219,-0.0729810893535614,-0.037088751792907715
1742766305555953700,2.60695361328125,8.085348129272461,-0.2847459018230438,-0.6783652305603027
1742766305558351000,2.60935107421875,6.4319071769714355,0.5563312768936157,-1.4135600328445435
1742766305560735000,2.61173486328125,7.585247993469238,1.114457130432129,-1.29810631275177
1742766305563145500,2.6141455078125,9.969695091247559,0.5078766345977783,-0.10229317098855972
1742766305565542700,2.616542724609375,11.524432182312012,0.3481557071208954,0.8165507316589355
1742766305567926800,2.6189267578125,11.47657585144043,0.7357929348945618,0.2189432680606842
1742766305570337300,2.621337158203125,10.312467575073242,0.2560320198535919,-0.4378865361213684
1742766305572734500,2.623734375,8.683553695678711,-0.16031911969184875,-0.5174478888511658
1742766305575118300,2.626118408203125,7.619943618774414,0.20817556977272034,-0.4654040038585663
1742766305577529000,2.628529052734375,7.7802629470825195,0.4301098585128784,-0.7549355626106262
1742766305579926300,2.63092626953125,9.457033157348633,0.8668000102043152,-0.8901300430297852
1742766305582323500,2.633323486328125,10.698907852172852,0.7920243144035339,-0.37447673082351685
1742766305584721000,2.635720947265625,10.919646263122559,-0.3840480446815491,-0.2476571500301361
1742766305587118000,2.6381181640625,10.415358543395996,-0.778863787651062,-0.43908295035362244
1742766305589515300,2.640515380859375,9.401400566101074,-0.5216353535652161,-0.7256234884262085
1742766305591912400,2.642912353515625,8.664410591125488,-0.5910272002220154,-0.8099704384803772
1742766305594310000,2.645309814453125,9.404989242553711,-0.046061836183071136,-0.8799605369567871
1742766305596693800,2.64769384765625,11.167303085327148,0.11904292553663254,-0.6885347366333008
1742766305599104300,2.650104248046875,12.567702293395996,-0.3966103494167328,0.129810631275177
1742766305601501400,2.65250146484375,11.775080680847168,-0.6167500615119934,0.5682953596115112
1742766305603899000,2.65489892578125,9.114859580993652,-0.5724828243255615,0.2273181527853012
1742766305606296000,2.657296142578125,7.086942672729492,0.3188436031341553,0.01734796352684498
1742766305608693200,2.659693359375,7.4949188232421875,0.6993024349212646,-0.06699903309345245
1742766305611090700,2.662090576171875,10.100702285766602,-0.038285162299871445,0.06580262631177902
1742766305613487900,2.66448779296875,12.509676933288574,0.05922235921025276,-0.024526432156562805
1742766305615885000,2.666885009765625,13.033106803894043,0.3517449200153351,-0.4007977843284607
1742766305618282200,2.6692822265625,10.697711944580078,-0.33379876613616943,-0.3613162338733673
1742766305620679700,2.6716796875,7.416553974151611,-0.010767702013254166,0.11964113265275955
1742766305623076900,2.674076904296875,6.646064758300781,0.7423732280731201,-0.026919255033135414
1742766305625474000,2.67647412109375,8.93539810180664,0.8237292170524597,-0.9320043921470642
1742766305627871200,2.678871337890625,12.28116226196289,0.7603194117546082,-1.0348957777023315
1742766305630268700,2.6812685546875,14.180464744567871,0.6059823632240295,-0.18305093050003052
1742766305632652500,2.683652587890625,13.655838966369629,-0.004785645287483931,-0.004187439568340778
1742766305635063000,2.68606298828125,11.101500511169434,-0.004187439568340778,-0.865005373954773
1742766305637460500,2.68846044921875,7.89631462097168,-0.07058826833963394,-1.1431710720062256
1742766305639844400,2.69084423828125,6.580860614776611,-0.24646073579788208,-0.10827522724866867
1742766305642254800,2.6932548828125,7.906484127044678,-0.46061834692955017,0.9260223507881165
1742766305644652000,2.695652099609375,10.566106796264648,-0.11545369029045105,0.30209386348724365
1742766305647049500,2.698049560546875,10.53499984741211,0.04546362906694412,-0.6681957244873047
1742766305649446700,2.70044677734375,7.925626754760742,-0.5102694034576416,-0.5413761138916016
1742766305651843800,2.70284375,6.008377552032471,-0.8763712644577026,0.01375873014330864
1742766305654227700,2.705227783203125,6.636493682861328,-0.5072783827781677,-0.04307080805301666
1742766305656638500,2.707638427734375,10.083952903747559,0.16331014037132263,-0.42831525206565857
1742766305659035600,2.71003564453125,13.28255844116211,-0.04127619042992592,-0.10827522724866867
1742766305661419500,2.71241943359375,14.31745433807373,0.04666004329919815,0.7513462901115417
1742766305663830300,2.714830322265625,12.662817001342773,0.13878370821475983,0.6035895347595215
1742766305666227500,2.7172275390625,9.230313301086426,-0.6299105882644653,-0.4019941985607147
1742766305668611300,2.719611328125,6.5766730308532715,-0.7256234884262085,-0.2105683982372284
1742766305671022000,2.72202197265625,7.474579811096191,0.357128769159317,0.7543373107910156
1742766305673419300,2.724419189453125,10.887343406677246,0.747757077217102,0.372682124376297
1742766305675803100,2.72680322265625,13.496716499328613,0.8590233325958252,-1.01814603805542
1742766305678213600,2.729213623046875,12.921242713928223,0.8817551732063293,-1.1120643615722656
1742766305680611000,2.731611083984375,10.541580200195312,-0.0568295381963253,-0.030508488416671753
1742766305682995000,2.733994873046875,8.536395072937012,-0.3128615617752075,0.25363919138908386
1742766305685405400,2.736405517578125,8.421539306640625,0.5006981492042542,-0.21296121180057526
1742766305687803000,2.738802978515625,9.989436149597168,0.49232324957847595,0.2021935135126114
1742766305690186500,2.7411865234375,11.450852394104004,0.08673982322216034,0.7202396392822266
1742766305692597200,2.74359716796875,10.132407188415527,0.5341976284980774,-0.26500511169433594
1742766305694994400,2.745994384765625,7.227520942687988,0.5587241053581238,-1.0959128141403198
1742766305697378300,2.74837841796875,5.315655708312988,-0.28893333673477173,-1.0241280794143677
1742766305699789000,2.7507890625,5.117649555206299,-1.0091729164123535,-0.9421738982200623
1742766305702186200,2.753186279296875,6.790830612182617,-0.18783657252788544,-0.9511470198631287
1742766305704570000,2.755570068359375,10.168299674987793,0.722034215927124,-0.8350951075553894
1742766305706980900,2.75798095703125,13.828720092773438,-0.030508488416671753,-0.16151553392410278
1742766305709378000,2.7603779296875,15.408581733703613,-0.6622136831283569,0.46002015471458435
1742766305711762000,2.762761962890625,13.306487083435059,0.39541393518447876,0.08015955984592438
1742766305714172700,2.765172607421875,8.916853904724121,0.355932354927063,-0.672383189201355
1742766305716569900,2.76756982421875,5.207978248596191,-0.11126625537872314,-0.7615157961845398
1742766305718953700,2.76995361328125,5.444868087768555,0.1944168359041214,-0.5509474277496338
1742766305721364200,2.7723642578125,8.736793518066406,-0.17647066712379456,0.06819544732570648
1742766305723761700,2.77476171875,12.730414390563965,-0.36311084032058716,0.4007977843284607
1742766305726145500,2.7771455078125,13.218550682067871,0.11485548317432404,-0.09272187948226929
1742766305728556000,2.77955615234375,10.089336395263672,-0.30927231907844543,0.0933200865983963
1742766305730953200,2.781953125,7.584649562835693,-0.39960137009620667,0.43609192967414856
1742766305733337300,2.78433740234375,7.81974458694458,0.3577269911766052,-0.5838487148284912
1742766305735747800,2.786747802734375,9.704092025756836,0.5928218364715576,-1.6253247261047363
1742766305738145000,2.78914501953125,11.551351547241211,0.8165507316589355,-1.5140584707260132
1742766305740529000,2.79152880859375,11.83310604095459,0.9523434042930603,-0.5521438121795654
1742766305742939600,2.793939697265625,11.052447319030762,0.5455635786056519,0.37148571014404297
1742766305745336800,2.7963369140625,9.984650611877441,0.4785645306110382,0.07836493849754333
1742766305747720700,2.798720703125,8.757730484008789,0.061016976833343506,-0.8781659007072449
1742766305750131500,2.80113134765625,9.065208435058594,-0.8488538265228271,-0.8027920126914978
1742766305752528600,2.803528564453125,10.392626762390137,-0.8781659007072449,-0.5964110493659973
1742766305754912500,2.80591259765625,11.413763999938965,-0.08973085135221481,-1.1563315391540527
1742766305757323000,2.808322998046875,11.519047737121582,0.3206382393836975,-1.3399807214736938
1742766305759720400,2.810720458984375,11.391630172729492,0.16510476171970367,-0.8315058946609497
1742766305762117600,2.81311767578125,10.423733711242676,-0.24227328598499298,-0.25064817070961
1742766305764514800,2.815514892578125,9.656235694885254,-0.20757736265659332,-0.30568310618400574
1742766305766912300,2.817912353515625,9.757930755615234,0.1704886108636856,-0.6658028960227966
1742766305769309400,2.820309326171875,9.468399047851562,-0.4827519655227661,0.1746760457754135
1742766305771706600,2.82270654296875,9.449854850769043,-0.4701896607875824,1.4315061569213867
1742766305774103800,2.825103759765625,9.340383529663086,0.25423741340637207,0.7208378314971924
1742766305776501200,2.827501220703125,9.157930374145508,0.2069791555404663,-0.7926225066184998
1742766305778898400,2.8298984375,8.761320114135742,0.14656038582324982,-0.9678967595100403
1742766305781295600,2.832295654296875,8.71226692199707,-0.1663011759519577,-0.13639089465141296
1742766305783692800,2.83469287109375,9.193822860717773,-0.7884350419044495,-0.15493527054786682
1742766305786090200,2.83709033203125,9.561718940734863,0.06999006122350693,-0.9846464991569519
1742766305788487400,2.8394873046875,9.716654777526855,0.7890332937240601,-0.9194421172142029
1742766305790884600,2.841884521484375,10.667801856994629,0.6185446381568909,0.1010967567563057
1742766305793282000,2.844281982421875,11.074581146240234,0.722034215927124,0.22911277413368225
1742766305795679200,2.84667919921875,10.218548774719238,0.9032905697822571,-0.8201399445533752
1742766305798076400,2.849076416015625,8.918647766113281,0.22851456701755524,-0.8297112584114075
1742766305800473600,2.8514736328125,8.541778564453125,-0.34995031356811523,0.06281159073114395
1742766305802871000,2.85387109375,8.223533630371094,-0.6029912829399109,-0.3613162338733673
1742766305805255000,2.8562548828125,7.927421569824219,-0.29850462079048157,-1.158724308013916
1742766305807665400,2.85866552734375,9.525827407836914,0.26919254660606384,-1.0546365976333618
1742766305810062600,2.8610625,11.97009563446045,-0.05922235921025276,-0.267397940158844
1742766305812446700,2.86344677734375,13.207184791564941,-0.5282155871391296,0.18963119387626648
1742766305814857200,2.865857177734375,12.445669174194336,-0.19621145725250244,-0.3930211067199707
1742766305817254400,2.86825439453125,10.751550674438477,-0.43609192967414856,-0.7471588850021362
1742766305819638300,2.87063818359375,8.71645450592041,-0.9320043921470642,-0.01615155301988125
1742766305822049000,2.873049072265625,8.401798248291016,-0.2590230405330658,0.6681957244873047
1742766305824446200,2.8754462890625,10.344770431518555,0.3966103494167328,0.12023933976888657
1742766305826830000,2.877830078125,11.80020523071289,0.026919255033135414,-0.8614161610603333
1742766305829240800,2.88024072265625,11.94317626953125,0.09032905846834183,-0.885344386100769
1742766305831638000,2.882637939453125,9.858428955078125,-0.2021935135126114,-0.029312077909708023
1742766305834022000,2.88502197265625,7.592426300048828,-0.2745763957500458,0.06580262631177902
1742766305836432400,2.887432373046875,6.822535514831543,0.7986045479774475,-0.45583271980285645
1742766305838829800,2.889829833984375,8.127820014953613,1.0719845294952393,-0.09990034252405167
1742766305841227000,2.89222705078125,10.29033374786377,0.5479564070701599,0.13040883839130402
1742766305843624200,2.894624267578125,11.529815673828125,0.6197410821914673,-1.1479566097259521
1742766305846021600,2.897021728515625,10.894521713256836,0.46480581164360046,-1.9950158596038818
1742766305848418800,2.899418701171875,8.802596092224121,-0.13220344483852386,-1.1455638408660889
1742766305850816000,2.90181591796875,7.566105365753174,-0.06580262631177902,0.062213387340307236
1742766305853213200,2.904213134765625,8.933603286743164,0.5946164131164551,0.22432711720466614
1742766305855597300,2.906597412109375,11.603395462036133,0.9541380405426025,-0.4181457459926605
1742766305858007800,2.9090078125,13.097114562988281,-0.19621145725250244,-0.9559326171875
1742766305860405000,2.911405029296875,12.06760311126709,-1.0444670915603638,-0.786640465259552
1742766305862802400,2.913802490234375,9.786046028137207,-0.6029912829399109,-0.7794619798660278
1742766305865199600,2.91619970703125,7.737192153930664,-0.39960137009620667,-1.301695466041565
1742766305867596800,2.9185966796875,7.219145774841309,-0.381655216217041,-1.1623135805130005
1742766305869994000,2.920993896484375,9.32183837890625,0.16749759018421173,-0.11186445504426956
1742766305872391400,2.923391357421875,12.0604248046875,0.050847481936216354,0.7136593461036682
1742766305874788600,2.92578857421875,13.193426132202148,-0.15912270545959473,0.5006981492042542
1742766305877172500,2.92817236328125,12.052647590637207,0.28115665912628174,0.23449662327766418
1742766305879583200,2.930583251953125,9.140582084655762,0.1052841991186142,0.5401797294616699
1742766305881980400,2.93298046875,6.872186660766602,-0.17766708135604858,0.020338991656899452
1742766305884364300,2.9353642578125,6.738786697387695,0.5551348328590393,-1.3758729696273804
1742766305886774800,2.93777490234375,8.33300495147705,0.6574280261993408,-1.3453645706176758
1742766305889172200,2.940172119140625,10.658828735351562,-0.2315055876970291,-0.026919255033135414
1742766305891556000,2.94255615234375,11.126625061035156,-0.01615155301988125,0.6203392744064331
1742766305893966600,2.944966552734375,9.705886840820312,0.5162515044212341,0.5072783827781677
1742766305896364000,2.947364013671875,8.691927909851074,0.37926238775253296,0.0568295381963253
1742766305898761200,2.94976123046875,8.435895919799805,0.4737788736820221,-0.4660021960735321
1742766305901158400,2.952158447265625,8.921041488647461,0.8141579031944275,-0.9984052777290344
1742766305903555600,2.9545556640625,11.047661781311035,0.8991031050682068,-1.1024930477142334
1742766305905939500,2.956939453125,12.732209205627441,0.6963114142417908,-0.5653043389320374
1742766305908350200,2.95935009765625,12.209976196289062,-0.09631111472845078,0.08434699475765228
1742766305910747400,2.961747314453125,10.436894416809082,-0.542572557926178,-0.037088751792907715
1742766305913131300,2.96413134765625,8.692526817321777,-0.5443671345710754,-0.5575276613235474
1742766305915542000,2.9665419921875,7.738388538360596,-0.07537391036748886,-0.5383850932121277
1742766305917939200,2.968939208984375,7.255038261413574,-0.15912270545959473,0.024526432156562805
1742766305920336400,2.97133642578125,8.22413158416748,-0.6514459848403931,-0.10408778488636017
1742766305922733800,2.97373388671875,9.825528144836426,-0.2877369225025177,-1.067797064781189
1742766305925131000,2.976131103515625,10.022337913513184,0.038285162299871445,-1.2191431522369385
1742766305927528200,2.978528076171875,10.292128562927246,-0.44745782017707825,-0.39900317788124084
1742766305929925400,2.98092529296875,9.858428955078125,-0.2309073805809021,0.02273181453347206
1742766305932322800,2.98332275390625,9.42173957824707,0.6293123364448547,-0.019740786403417587
1742766305934720000,2.985719970703125,10.64088249206543,0.494716078042984,0.16749759018421173
1742766305937117200,2.9881171875,12.324233055114746,-0.012562318705022335,0.698704183101654
1742766305939514400,2.990514404296875,12.105289459228516,-0.13698910176753998,0.3798605799674988
1742766305941898500,2.9928984375,8.952746391296387,-0.26141586899757385,-0.5282155871391296
1742766305944309000,2.99530908203125,6.085546016693115,-0.15912270545959473,-0.592223584651947
1742766305946706200,2.9977060546875,6.317649841308594,0.5389832854270935,0.02512463741004467
1742766305949103600,3.000103515625,9.565308570861816,0.24825534224510193,0.43968117237091064
1742766305951500800,3.002500732421875,13.300504684448242,0.09810572862625122,-0.4169493317604065
1742766305953898000,3.00489794921875,14.481362342834473,0.7004988193511963,-1.4213366508483887
1742766305956281900,3.00728173828125,11.955738067626953,0.26141586899757385,-0.8608179688453674
1742766305958692600,3.009692626953125,9.2859468460083,-0.4372883439064026,0.13698910176753998
1742766305961089800,3.01208984375,9.07717227935791,-0.18843477964401245,0.25782662630081177
1742766305963487000,3.014487060546875,10.435697555541992,0.008374879136681557,-0.08673982322216034
1742766305965884200,3.01688427734375,10.451251029968262,-0.10827522724866867,-0.41156548261642456
1742766305968281600,3.019281494140625,9.369096755981445,0.20877377688884735,-0.6885347366333008
1742766305970665500,3.02166552734375,7.737192153930664,0.024526432156562805,-0.6143572330474854
1742766305973076000,3.024075927734375,7.2574310302734375,-0.34995031356811523,-0.753140926361084
1742766305975473400,3.026473388671875,7.717451095581055,-0.3762713670730591,-1.1395817995071411
1742766305977870600,3.02887060546875,8.206783294677734,0.01734796352684498,-0.9343972206115723
1742766305980267800,3.031267822265625,9.44746208190918,0.49292147159576416,-0.1866401731967926
1742766305982665000,3.0336650390625,10.84726333618164,0.4743770956993103,-0.09990034252405167
1742766305985048800,3.036048828125,10.913065910339355,0.13938191533088684,-0.4827519655227661
1742766305987459600,3.03845947265625,9.92243766784668,0.48813581466674805,-0.13579268753528595
1742766305989856800,3.040856689453125,8.552546501159668,-0.03888336941599846,0.5641079545021057
1742766305992240600,3.04324072265625,7.304090976715088,-1.0390832424163818,0.2667997181415558
1742766305994651400,3.0456513671875,7.968099594116211,-0.0729810893535614,-0.5629115104675293
1742766305997048600,3.048048583984375,10.370492935180664,0.6508477330207825,-0.3361915946006775
1742766305999432400,3.050432373046875,12.27817153930664,-0.582054078578949,0.4863412082195282
1742766306001843200,3.05284326171875,11.734402656555176,-0.02273181453347206,0.4618147611618042
1742766306004240400,3.055240478515625,9.020941734313965,0.9343972206115723,-0.11665010452270508
1742766306006624300,3.057624267578125,7.991429328918457,0.39900317788124084,-0.7603194117546082
1742766306009034800,3.06003466796875,9.295517921447754,0.34695929288864136,-0.8542376756668091
1742766306011432200,3.06243212890625,10.365707397460938,0.2189432680606842,-0.47617170214653015
1742766306013829400,3.064829345703125,10.760523796081543,-0.3487538993358612,-0.15613168478012085
1742766306016226600,3.0672265625,11.029715538024902,0.04785645380616188,-0.04546362906694412
1742766306018623700,3.069623779296875,10.445268630981445,0.41216370463371277,0.029312077909708023
1742766306021021200,3.072021240234375,8.779864311218262,0.24287149310112,-0.15314064919948578
