time,seconds_elapsed,z,y,x
1742766207941634000,0.069634033203125,-0.35607051849365234,-0.42156410217285156,-0.37251511216163635
1742766207956017700,0.084017578125,-0.4570193290710449,-0.3554697036743164,-0.34137675166130066
1742766207966214400,0.09421435546875,-0.2926058769226074,-0.24920368194580078,-0.35599198937416077
1742766207980597800,0.10859765625,0.2431044578552246,-0.11560773849487305,-0.36264264583587646
1742766207994980900,0.12298095703125,0.6874179840087891,-0.2731895446777344,-0.2347249984741211
1742766208009364200,0.1373642578125,0.8208279609680176,-0.4372215270996094,-0.08034062385559082
1742766208023747600,0.15174755859375,0.7171893119812012,-0.5344953536987305,-0.09163665771484375
1742766208038130700,0.166130615234375,0.590733528137207,-0.4910597801208496,-0.08970576524734497
1742766208052514000,0.18051416015625,0.45615577697753906,-0.3264789581298828,-0.07621896266937256
1742766208066897400,0.1948974609375,0.45999670028686523,-0.35853099822998047,-0.253643274307251
1742766208081280500,0.209280517578125,0.5547776222229004,-0.5205636024475098,-0.20463180541992188
1742766208095663900,0.223663818359375,0.38273048400878906,-0.6464157104492188,-0.2387927770614624
1742766208110047200,0.238047119140625,0.43007564544677734,-0.7065377235412598,-0.3670949935913086
1742766208124430300,0.252430419921875,0.4855461120605469,-0.5482873916625977,-0.34933847188949585
1742766208138813700,0.266813720703125,0.6227250099182129,-0.36160945892333984,-0.45375049114227295
1742766208153197000,0.281197021484375,0.2929377555847168,-0.48360681533813477,-0.48432105779647827
1742766208167580400,0.295580322265625,-0.2201385498046875,-0.48804664611816406,-0.35712534189224243
1742766208181963500,0.309963623046875,-0.2640414237976074,-0.29764556884765625,-0.14251405000686646
1742766208196347000,0.324346923828125,0.1160740852355957,-0.1274428367614746,-0.015375614166259766
1742766208210730200,0.338730224609375,0.45929479598999023,0.023092269897460938,0.06298905611038208
1742766208225113300,0.35311328125,0.5563678741455078,0.2915072441101074,0.42144936323165894
1742766208239496700,0.36749658203125,0.4972720146179199,0.05238771438598633,0.5772217512130737
1742766208253880000,0.381880126953125,0.22137737274169922,-0.38916826248168945,0.37116843461990356
1742766208268263200,0.39626318359375,-0.22861957550048828,-0.4065666198730469,0.3820597529411316
1742766208282646500,0.410646484375,-0.5110673904418945,-0.011108875274658203,0.6058186292648315
1742766208297030000,0.42502978515625,-0.4458141326904297,0.33774471282958984,0.543474555015564
1742766208311413000,0.4394130859375,-0.1104588508605957,0.41336870193481445,0.29495275020599365
1742766208325796400,0.45379638671875,0.44861412048339844,0.21460294723510742,0.05264836549758911
1742766208340179700,0.4681796875,0.5682468414306641,0.05718803405761719,-0.06198829412460327
1742766208354563000,0.48256298828125,0.5012369155883789,-0.0829010009765625,0.006984531879425049
1742766208368946200,0.4969462890625,0.5058307647705078,-0.17658567428588867,-0.0007901191711425781
1742766208383329500,0.51132958984375,0.7094764709472656,-0.25530385971069336,-0.11596739292144775
1742766208397713000,0.525712890625,0.944209098815918,-0.4401664733886719,-0.2637931704521179
1742766208412096000,0.540095947265625,0.9341630935668945,-0.5277843475341797,-0.2861979603767395
1742766208426479400,0.554479248046875,0.7433948516845703,-0.6635913848876953,-0.2663000822067261
1742766208440862700,0.56886279296875,0.24872398376464844,-0.8252034187316895,-0.2486986517906189
1742766208455245800,0.583245849609375,-0.3001289367675781,-0.7427244186401367,-0.2949368357658386
1742766208469629200,0.597629150390625,-0.4359745979309082,-0.4437413215637207,-0.396875262260437
1742766208484012500,0.612012451171875,0.24934005737304688,-0.32732725143432617,-0.4298971891403198
1742766208498395600,0.626395751953125,0.7011003494262695,-0.401247501373291,-0.49286192655563354
1742766208512779000,0.640779052734375,0.5048723220825195,-0.5425710678100586,-0.4906487464904785
1742766208527162400,0.655162353515625,0.0088043212890625,-0.6185741424560547,-0.27715349197387695
1742766208541545700,0.669545654296875,-0.32578039169311523,-0.4295949935913086,-0.15068435668945312
1742766208555928800,0.6839287109375,-0.2164163589477539,-0.2550644874572754,-0.17844659090042114
1742766208570312200,0.698312255859375,0.12230682373046875,-0.18782901763916016,-0.17562484741210938
1742766208584695600,0.712695556640625,0.24501991271972656,-0.25005006790161133,-0.28386926651000977
1742766208599078700,0.72707861328125,0.14580535888671875,-0.44570016860961914,-0.09740567207336426
1742766208613462000,0.7414619140625,-0.06007957458496094,-0.4958534240722656,0.15576481819152832
1742766208627845400,0.755845458984375,-0.09082508087158203,-0.21120834350585938,0.005288541316986084
1742766208642228500,0.770228515625,-0.10433292388916016,-0.055802345275878906,-0.10220175981521606
1742766208656611800,0.78461181640625,0.13937091827392578,-0.025419235229492188,-0.03506290912628174
1742766208670995200,0.7989951171875,0.1330547332763672,-0.07166910171508789,-0.13661283254623413
1742766208685378300,0.81337841796875,0.32048892974853516,-0.03265237808227539,0.0014976859092712402
1742766208699761700,0.82776171875,0.6144294738769531,0.06804704666137695,-0.03109443187713623
1742766208714145000,0.84214501953125,0.4343452453613281,0.07318353652954102,0.25594741106033325
1742766208728528400,0.8565283203125,-0.06365013122558594,-0.030881881713867188,0.5287774801254272
1742766208742911500,0.870911376953125,-0.38300657272338867,-0.07464122772216797,0.6638290882110596
1742766208757294800,0.885294921875,-0.23218917846679688,-0.04733896255493164,0.41686201095581055
1742766208771678200,0.89967822265625,-0.01611042022705078,0.025604724884033203,0.3110620975494385
1742766208786061300,0.914061279296875,0.19672393798828125,0.012081146240234375,0.18358266353607178
1742766208800444700,0.928444580078125,0.14898014068603516,-0.18219757080078125,0.2501228451728821
1742766208814828000,0.942828125,-0.2539548873901367,-0.12693357467651367,0.15996980667114258
1742766208829211400,0.95721142578125,-0.5937676429748535,-0.028066635131835938,0.24345558881759644
1742766208843594500,0.971594482421875,-0.35362815856933594,0.012431621551513672,0.1817755103111267
1742766208857977900,0.985977783203125,0.3842020034790039,-0.011756420135498047,0.2599288821220398
1742766208872361200,1.000361328125,0.49802112579345703,0.05469989776611328,-0.24939334392547607
1742766208886744300,1.014744384765625,-0.2578697204589844,-0.35965871810913086,-0.41605502367019653
1742766208901127700,1.029127685546875,-0.6319484710693359,-0.9579482078552246,0.17337143421173096
1742766208915511000,1.043510986328125,-0.46271228790283203,-0.8725953102111816,0.6659852266311646
1742766208929894100,1.05789404296875,0.2523679733276367,-0.27785587310791016,1.2531485557556152
1742766208944277500,1.072277587890625,0.5197515487670898,1.0946941375732422,1.1919031143188477
1742766208958660900,1.086660888671875,0.3608570098876953,0.5313396453857422,0.8222137093544006
1742766208973044000,1.1010439453125,0.9318075180053711,-0.19772076606750488,0.5270769596099854
1742766208987427300,1.11542724609375,1.041891098022461,-0.2847278118133545,-0.31054258346557617
1742766209001810700,1.129810791015625,0.9011774063110352,-0.0032663345336914062,0.23625683784484863
1742766209016194000,1.144194091796875,0.6256065368652344,0.07029366493225098,0.5798247456550598
1742766209030577200,1.1585771484375,0.7371492385864258,0.00371551513671875,0.6279158592224121
1742766209044960500,1.17296044921875,0.8482723236083984,-0.10045170783996582,0.57584547996521
1742766209059344000,1.18734375,0.7184295654296875,-0.08253860473632812,0.7657344937324524
1742766209073727200,1.201727294921875,0.6666851043701172,0.3028132915496826,0.4501127004623413
1742766209088110300,1.2161103515625,0.35660266876220703,0.39521169662475586,0.30262085795402527
1742766209102493700,1.23049365234375,0.2718038558959961,0.2819955348968506,0.5104299187660217
1742766209116877000,1.244876953125,0.6999778747558594,0.17359042167663574,-0.783236563205719
1742766209131260200,1.25926025390625,0.37479114532470703,0.28554391860961914,-1.4256821870803833
1742766209145643500,1.2736435546875,0.2646961212158203,0.12449884414672852,-1.4325566291809082
1742766209160027000,1.28802685546875,-0.4866809844970703,0.25661325454711914,-1.1904256343841553
1742766209174410000,1.302409912109375,-0.4770059585571289,0.5557365417480469,-0.6001067161560059
1742766209188793300,1.31679345703125,0.10163021087646484,1.0111885070800781,-0.8042150735855103
1742766209203176700,1.3311767578125,0.8968048095703125,0.9278302192687988,-0.6736099720001221
1742766209217559800,1.345559814453125,1.0000810623168945,0.8112177848815918,-0.9160946607589722
1742766209231943200,1.359943115234375,1.3696937561035156,1.0082578659057617,0.0836963951587677
1742766209246326500,1.374326416015625,1.3199291229248047,2.0182619094848633,0.23728767037391663
1742766209260710000,1.3887099609375,1.5725440979003906,2.029226303100586,1.5769002437591553
1742766209275093000,1.403093017578125,1.4746437072753906,1.6936702728271484,2.4028196334838867
1742766209289476400,1.417476318359375,1.0969619750976562,0.47104787826538086,1.682967185974121
1742766209303859700,1.431859619140625,0.955841064453125,0.37128543853759766,1.6698741912841797
1742766209318243000,1.4462431640625,0.8930587768554688,0.7029085159301758,2.2782368659973145
1742766209332626200,1.460626220703125,1.483290672302246,0.3978900909423828,1.9639651775360107
1742766209347009500,1.475009521484375,1.8432855606079102,0.6668767929077148,0.9516394138336182
1742766209361393000,1.489392822265625,1.6316165924072266,0.947667121887207,-0.18365269899368286
1742766209375776000,1.50377587890625,0.12827396392822266,1.3862199783325195,0.24034732580184937
1742766209390159400,1.518159423828125,-2.167210578918457,1.4710898399353027,0.54400235414505
1742766209404542700,1.532542724609375,-3.313185691833496,2.309968948364258,0.07208108901977539
1742766209418925800,1.54692578125,-2.4882235527038574,2.397176742553711,-1.6350274085998535
1742766209433309200,1.56130908203125,-0.9475622177124023,1.7076034545898438,-0.8124508857727051
1742766209447692500,1.575692626953125,-0.7188763618469238,1.383382797241211,0.9366010427474976
1742766209462076000,1.590075927734375,-1.618013858795166,0.18127202987670898,0.21661913394927979
1742766209476459000,1.604458984375,-3.2573652267456055,-0.06279754638671875,-1.5063951015472412
1742766209490842400,1.61884228515625,-3.729897975921631,-0.4539909362792969,-0.834500789642334
1742766209505225700,1.633225830078125,-3.658626079559326,-0.28755712509155273,0.019224882125854492
1742766209519608800,1.64760888671875,-3.3722691535949707,-0.008613109588623047,1.079279899597168
1742766209533992200,1.6619921875,-2.8799948692321777,-0.04575681686401367,1.4012625217437744
1742766209548375600,1.67637548828125,-1.024792194366455,-0.45777297019958496,2.1693222522735596
1742766209562758700,1.690758544921875,0.7981853485107422,-0.44026994705200195,1.4968860149383545
1742766209577142000,1.70514208984375,1.5962324142456055,0.6209561824798584,-0.14353084564208984
1742766209591525400,1.719525390625,0.50457763671875,0.4937326908111572,-0.6104066371917725
1742766209605908700,1.73390869140625,0.4335956573486328,-0.15067267417907715,-0.40040767192840576
1742766209620291800,1.748291748046875,-0.051250457763671875,0.3477351665496826,0.07513892650604248
1742766209634675200,1.76267529296875,-1.2068524360656738,-0.4870309829711914,1.3961588144302368
1742766209649058600,1.77705859375,-2.3852920532226562,-0.3942534923553467,0.4424869418144226
1742766209663442000,1.79144189453125,-2.1087517738342285,-0.8250958919525146,-0.2605234384536743
1742766209677825000,1.805824951171875,-1.7685608863830566,-0.6909770965576172,-0.3438907861709595
1742766209692208400,1.82020849609375,-0.8791427612304688,-0.7417495250701904,-0.571015477180481
1742766209706591700,1.834591796875,0.08953857421875,-0.7837111949920654,0.27534055709838867
1742766209720974800,1.848974853515625,0.8456878662109375,-1.2302846908569336,-0.5222620964050293
1742766209735358200,1.863358154296875,2.822110176086426,-0.8547322750091553,-0.3215228319168091
1742766209749741600,1.877741455078125,2.5461626052856445,-0.6927667856216431,0.26901888847351074
1742766209764125000,1.892125,1.931319236755371,-0.8295383453369141,0.18515419960021973
1742766209778508000,1.906508056640625,-0.2209625244140625,-1.5722970962524414,0.3176702857017517
1742766209792891400,1.920891357421875,-2.2791504859924316,-1.874161720275879,0.9676688313484192
1742766209807274800,1.935274658203125,-2.5294814109802246,-2.191786289215088,1.574416160583496
1742766209821658000,1.949658203125,-0.916590690612793,-2.224916696548462,0.016236960887908936
1742766209836041200,1.964041259765625,0.8377351760864258,-1.8155031204223633,-1.6445953845977783
1742766209850424600,1.978424560546875,1.6321840286254883,-0.9955668449401855,-1.5058817863464355
1742766209864808000,1.992807861328125,2.9038686752319336,-1.7960717678070068,-1.3732243776321411
1742766209879191000,2.00719091796875,2.5464954376220703,-1.2897539138793945,0.5453588962554932
1742766209893574400,2.021574462890625,0.5605859756469727,-1.2768992185592651,2.542168140411377
1742766209907957800,2.035957763671875,-1.736982822418213,-1.3097566366195679,1.987837314605713
1742766209922340900,2.0503408203125,-3.674617290496826,-1.0540270805358887,1.3569128513336182
1742766209936724200,2.06472412109375,-3.2832460403442383,-1.1076242923736572,0.49066489934921265
1742766209951107600,2.079107666015625,-1.6036300659179688,-0.7628845572471619,0.5166431069374084
1742766209965491000,2.093490966796875,0.28575611114501953,-0.6143226027488708,0.6772305369377136
1742766209979874000,2.1078740234375,1.5811481475830078,0.07558584213256836,-1.1930660009384155
1742766209994257400,2.12225732421875,1.158768653869629,-0.3602597713470459,-0.278556227684021
1742766210008640800,2.136640869140625,-0.6499090194702148,-0.7117394208908081,0.8400989174842834
1742766210023023900,2.15102392578125,-1.701655387878418,-1.3038949966430664,1.099510669708252
1742766210037407200,2.1654072265625,-1.3204851150512695,-1.3256866931915283,0.33333444595336914
1742766210051790600,2.17979052734375,-0.6516628265380859,-1.3559556007385254,-0.3619309663772583
1742766210066174000,2.194174072265625,0.39110851287841797,-1.3576862812042236,0.05529862642288208
1742766210080557000,2.20855712890625,1.643580436706543,-1.3225483894348145,0.4457879662513733
1742766210094940400,2.2229404296875,0.9251928329467773,-1.6644337177276611,0.9738364815711975
1742766210109323800,2.23732373046875,0.2020425796508789,-1.271668553352356,0.2896360754966736
1742766210123707100,2.25170703125,0.17929458618164062,-1.280513882637024,-1.1876029968261719
1742766210138090200,2.26609033203125,-0.5073575973510742,-1.5435471534729004,-0.9221804141998291
1742766210152473600,2.2804736328125,-0.55548095703125,-1.230221152305603,-0.11050224304199219
1742766210166857000,2.29485693359375,-1.232560157775879,-1.2783398628234863,0.7555585503578186
1742766210181240000,2.309239990234375,-2.292236804962158,-1.106620192527771,0.4870249629020691
1742766210195623400,2.32362353515625,-3.3570027351379395,-1.349714756011963,0.5994065403938293
1742766210210006800,2.3380068359375,-2.2234606742858887,-1.8181262016296387,0.6669390201568604
1742766210224390100,2.35239013671875,-1.7846379280090332,-1.6689534187316895,1.0316596031188965
1742766210238773200,2.366773193359375,1.0117244720458984,-2.334486722946167,0.9252457618713379
1742766210253156600,2.381156494140625,2.3245325088500977,-1.4853436946868896,0.20071154832839966
1742766210267540000,2.3955400390625,31.942096710205078,-2.4596469402313232,1.49996018409729
1742766210281923300,2.40992333984375,6.883896827697754,-5.279596328735352,-2.8150835037231445
1742766210296306400,2.424306396484375,0.5842342376708984,-1.1396441459655762,-3.2535247802734375
1742766210310689800,2.438689697265625,-0.20598506927490234,0.863326907157898,1.0145976543426514
1742766210325073200,2.4530732421875,-2.890137195587158,-0.10123980045318604,0.6045630574226379
1742766210339456500,2.46745654296875,5.0455217361450195,-0.6893513202667236,-0.12466263771057129
1742766210353839600,2.481839599609375,1.8764228820800781,-0.93781977891922,1.2578790187835693
1742766210368223000,2.496222900390625,-0.38191890716552734,-0.344093918800354,-0.5287450551986694
1742766210382606300,2.5106064453125,-2.1167197227478027,0.08497337996959686,0.1758040189743042
1742766210396989400,2.524989501953125,-0.6816253662109375,-0.1275481879711151,0.5755428671836853
1742766210411372800,2.539372802734375,-0.9283695220947266,1.4432610273361206,3.4020347595214844
1742766210425756200,2.553756103515625,-1.5052404403686523,0.24901480972766876,3.6606931686401367
1742766210440139500,2.568139404296875,0.8630733489990234,-0.6320078372955322,-0.15461385250091553
1742766210454522600,2.582522705078125,-3.9955244064331055,-0.22828665375709534,2.4386634826660156
1742766210468906000,2.596906005859375,-4.598206996917725,-1.9166187047958374,-1.8439996242523193
1742766210483289300,2.611289306640625,10.656139373779297,-0.44672051072120667,0.9528695940971375
1742766210497672700,2.625672607421875,-3.8599820137023926,0.2075595259666443,0.7534828782081604
1742766210512055800,2.640055908203125,0.22774219512939453,-0.3183424174785614,1.630618691444397
1742766210526439200,2.654439208984375,-0.08600616455078125,0.7324025630950928,0.9552847146987915
1742766210540822500,2.668822509765625,1.4810361862182617,-0.6636197566986084,-0.5936247110366821
1742766210555205600,2.68320556640625,1.8779544830322266,0.26533520221710205,-1.5511832237243652
1742766210569589000,2.697589111328125,-0.41341400146484375,0.09713095426559448,-0.7444784045219421
1742766210583972400,2.711972412109375,-1.587855339050293,-0.020498335361480713,0.7159020900726318
1742766210598355700,2.726355712890625,-1.1225090026855469,0.07264178991317749,0.9479254484176636
1742766210612738800,2.74073876953125,-2.1656641960144043,-0.40698719024658203,1.0680755376815796
1742766210627122200,2.7551220703125,-1.930924892425537,-0.818299412727356,1.068844199180603
1742766210641505500,2.769505615234375,-0.09586620330810547,0.19657522439956665,0.8699756264686584
1742766210655889000,2.783888916015625,0.1606283187866211,-0.638216495513916,1.051551103591919
1742766210670272000,2.79827197265625,-0.1736297607421875,0.3305586576461792,0.5752301216125488
1742766210684655400,2.8126552734375,-0.8741598129272461,-0.07512009143829346,0.9816673994064331
1742766210699038700,2.827038818359375,-1.643864631652832,-0.6445313096046448,1.4165048599243164
1742766210713422000,2.841422119140625,-0.5187654495239258,-0.715047299861908,0.9312433004379272
1742766210727805200,2.85580517578125,-6.149603843688965,-0.030062735080718994,3.463951349258423
1742766210742188500,2.8701884765625,-0.28225231170654297,-0.25980308651924133,3.057079315185547
1742766210756572000,2.884572021484375,-5.027472972869873,0.19312557578086853,3.430013656616211
1742766210770955000,2.898955078125,-3.5192103385925293,-0.16811127960681915,3.453038454055786
1742766210785338400,2.91333837890625,-3.703244686126709,-0.4335298538208008,1.9583311080932617
1742766210799721700,2.9277216796875,5.098955154418945,-0.2813425660133362,-1.2680575847625732
1742766210814105000,2.94210498046875,1.6292924880981445,-0.5764039754867554,-4.876742839813232
1742766210828488200,2.95648828125,-4.0183610916137695,-0.599287748336792,-1.1446821689605713
1742766210842871600,2.97087158203125,-0.38715648651123047,-0.049548447132110596,2.4155404567718506
1742766210857255000,2.9852548828125,0.22010231018066406,-0.19035126268863678,1.6637916564941406
1742766210871638300,2.99963818359375,-1.343287467956543,0.06726810336112976,1.1622612476348877
1742766210886021400,3.014021484375,-0.4681234359741211,-0.8073430061340332,0.4944193959236145
1742766210900404700,3.02840478515625,2.5772476196289062,-0.6760377883911133,-1.5036653280258179
1742766210914788000,3.0427880859375,-3.0335030555725098,-0.14036060869693756,-2.5314340591430664
1742766210929171500,3.05717138671875,0.05814170837402344,0.20888620615005493,-2.005507707595825
1742766210943554600,3.071554443359375,0.24627304077148438,0.3114914000034332,-1.7393958568572998
1742766210957938000,3.08593798828125,0.12616443634033203,0.2241176962852478,-1.0497735738754272
1742766210972321300,3.1003212890625,0.22068309783935547,-0.2119118720293045,-1.1676068305969238
1742766210986704400,3.114704345703125,-1.190382957458496,-0.2157285064458847,-1.316309928894043
1742766211001087700,3.129087646484375,0.27897167205810547,-0.8417435884475708,-0.43542519211769104
1742766211015471000,3.14347119140625,2.0652999877929688,-0.3661385774612427,-2.1307528018951416
1742766211029854500,3.1578544921875,-0.6384401321411133,0.23758980631828308,-0.04700348526239395
1742766211044237600,3.172237548828125,-0.2513570785522461,-0.6823041439056396,0.10289418697357178
1742766211058621000,3.186620849609375,-0.3842277526855469,-0.13012078404426575,0.2800953984260559
1742766211073004300,3.20100439453125,2.6417083740234375,-0.09460648894309998,0.05934027582406998
1742766211087387600,3.2153876953125,0.060085296630859375,0.040435612201690674,-0.4220410883426666
1742766211101770800,3.229770751953125,-3.1555981636047363,-0.5434510707855225,-0.145871102809906
1742766211116154000,3.244154052734375,3.471210479736328,0.2977224886417389,-0.502497673034668
1742766211130537500,3.258537353515625,-1.142557144165039,0.25566163659095764,0.29862552881240845
1742766211144920800,3.2729208984375,3.2338876724243164,-0.45968812704086304,-0.2510230243206024
1742766211159304000,3.287303955078125,1.8619613647460938,-0.13816598057746887,-0.2240939885377884
1742766211173687300,3.301687255859375,-0.4339323043823242,-0.07445123791694641,0.33001360297203064
1742766211188070700,3.316070556640625,2.4474334716796875,0.05648908019065857,1.0745686292648315
1742766211202453800,3.330453857421875,0.5864534378051758,-0.2347133755683899,0.04842375963926315
1742766211216837000,3.344837158203125,-0.13037872314453125,-0.6242843866348267,-0.09939098358154297
1742766211231220500,3.359220458984375,-0.05987071990966797,0.127595454454422,0.04508901387453079
1742766211245603800,3.373603759765625,0.04349708557128906,-0.11830946803092957,0.09916360676288605
1742766211259987000,3.387987060546875,0.18915939331054688,-0.5095608234405518,-0.7288185358047485
1742766211274370300,3.402370361328125,-0.37310123443603516,0.2810586988925934,0.36061546206474304
1742766211288753700,3.416753662109375,0.8310031890869141,0.14320141077041626,-0.17030081152915955
1742766211303137000,3.431136962890625,0.6807470321655273,-0.12043046951293945,0.1364338994026184
1742766211317520100,3.44552001953125,3.7557992935180664,0.6540469527244568,0.43264567852020264
1742766211331903500,3.459903564453125,-0.6496820449829102,-0.9283870458602905,-0.5506473183631897
1742766211346286800,3.474286865234375,0.7014427185058594,-0.028391927480697632,0.29687950015068054
1742766211360670200,3.488670166015625,-0.6110210418701172,0.5413424968719482,0.4639599323272705
1742766211375053300,3.50305322265625,-0.2799406051635742,-0.7645197510719299,0.012858666479587555
1742766211389436700,3.517436767578125,1.176497459411621,-0.5167425274848938,0.16100841760635376
1742766211403820000,3.531820068359375,-0.48648643493652344,-0.1122894287109375,-0.18454033136367798
1742766211418203400,3.546203369140625,0.5319242477416992,-0.12627142667770386,-0.2580815255641937
1742766211432586500,3.56058642578125,4.722194671630859,-0.24776054918766022,0.47582823038101196
1742766211446969900,3.574969970703125,-2.157336711883545,-0.02092421054840088,-0.044913239777088165
1742766211461353200,3.589353271484375,-0.07644939422607422,0.27611851692199707,-0.7118799090385437
1742766211475736600,3.603736572265625,1.1669731140136719,-0.09777650237083435,0.0026520565152168274
1742766211490119700,3.61811962890625,1.340703010559082,-0.191923588514328,-0.3699766993522644
1742766211504503000,3.6325029296875,0.7775068283081055,0.07729274034500122,0.2790810763835907
1742766211518886400,3.646886474609375,-0.29674434661865234,-0.030950933694839478,0.7686892151832581
1742766211533269800,3.661269775390625,1.005655288696289,-0.325986385345459,1.4129948616027832
1742766211547653000,3.675653076171875,2.0330333709716797,0.26958906650543213,0.0018844008445739746
1742766211562036200,3.6900361328125,2.18656063079834,-0.5116857290267944,0.5763318538665771
1742766211576419600,3.704419677734375,0.4785633087158203,-0.7596673965454102,0.7656121850013733
1742766211590803000,3.718802978515625,-0.0753021240234375,0.13006526231765747,0.5715122818946838
1742766211605186300,3.733186279296875,2.257065773010254,-0.6008270978927612,0.2995133697986603
1742766211619569400,3.7475693359375,-0.056056976318359375,0.32362836599349976,0.34840962290763855
1742766211633952800,3.761952880859375,-1.6058034896850586,0.06101500988006592,-0.3155476450920105
1742766211648336100,3.776336181640625,2.6860294342041016,0.24001997709274292,0.126438707113266
1742766211662719200,3.79071923828125,2.305912971496582,-0.45262089371681213,-0.12832248210906982
1742766211677102600,3.8051025390625,0.1333446502685547,-0.09699466824531555,-0.21900494396686554
1742766211691486000,3.81948583984375,1.527872085571289,0.29180580377578735,-0.6595396399497986
1742766211705869300,3.833869384765625,0.4409770965576172,0.0690886378288269,0.5065237283706665
1742766211720252400,3.84825244140625,1.5100336074829102,-0.5943843126296997,0.49556195735931396
1742766211734635800,3.8626357421875,0.7834548950195312,0.015102267265319824,-0.41199153661727905
1742766211749019100,3.87701904296875,0.580225944519043,-0.06752175092697144,-1.0989261865615845
1742766211763402500,3.891402587890625,-0.0953216552734375,0.8267064690589905,-0.3402174711227417
1742766211777785600,3.90578564453125,2.8005475997924805,-1.0886640548706055,0.883719801902771
1742766211792169000,3.9201689453125,0.7817506790161133,-0.3708190321922302,0.48075222969055176
1742766211806552300,3.93455224609375,0.03162860870361328,0.07667815685272217,0.3795051574707031
1742766211820935700,3.948935791015625,1.5638408660888672,0.5845390558242798,0.48036038875579834
1742766211835318800,3.96331884765625,4.596755027770996,0.01198720932006836,0.12315624207258224
1742766211849702100,3.9777021484375,0.2986898422241211,0.014272928237915039,0.24813255667686462
1742766211864085500,3.99208544921875,-0.18000411987304688,-0.4597017467021942,0.6124603152275085
1742766211878468900,4.00646875,0.44855403900146484,-0.36184465885162354,0.1754576563835144
1742766211892852000,4.02085205078125,3.2797164916992188,-0.8870433568954468,0.48125314712524414
1742766211907235300,4.0352353515625,0.9942731857299805,-0.693429708480835,0.6751852035522461
1742766211921618700,4.04961865234375,0.9067449569702148,-1.0305190086364746,0.5794779062271118
1742766211936002000,4.064001953125,1.0023040771484375,-0.5732740163803101,0.7481767535209656
1742766211950385400,4.078385498046875,1.7363834381103516,-0.25857582688331604,0.0017502456903457642
1742766211964768500,4.0927685546875,0.16542720794677734,-0.10848665237426758,0.3211352527141571
1742766211979152000,4.10715185546875,-0.2355947494506836,-1.279587984085083,0.27533602714538574
1742766211993535200,4.12153515625,0.43346595764160156,0.31282487511634827,0.032004281878471375
1742766212007918600,4.135918701171875,2.109938621520996,-0.8290112614631653,0.7469080686569214
1742766212022301700,4.1503017578125,0.7146377563476562,0.247285395860672,0.16455531120300293
1742766212036685000,4.16468505859375,-0.2383861541748047,-0.030794143676757812,-0.1500256508588791
1742766212051068400,4.179068359375,-0.05167102813720703,-0.3925028443336487,0.36034947633743286
1742766212065451500,4.193451416015625,1.733262062072754,-0.20350703597068787,0.43760794401168823
1742766212079835000,4.2078349609375,2.2602758407592773,-0.6100417375564575,-0.4568411707878113
1742766212094218200,4.22221826171875,1.5051507949829102,0.28295984864234924,0.0314582884311676
1742766212108601600,4.2366015625,0.33510589599609375,-0.2560209631919861,0.18327927589416504
1742766212122984700,4.250984619140625,0.665924072265625,-0.7092660665512085,0.2829737067222595
1742766212137368000,4.2653681640625,2.464906692504883,0.39803826808929443,-0.09466363489627838
1742766212151751400,4.27975146484375,1.9497184753417969,0.40079954266548157,-0.05075499415397644
1742766212166134800,4.294134765625,0.0704050064086914,-0.3445424437522888,-0.09808103740215302
1742766212180518100,4.30851806640625,1.6710329055786133,-0.3140450417995453,0.4092004895210266
1742766212194901200,4.3229013671875,1.2083091735839844,-0.529367208480835,-0.09168457984924316
1742766212209284600,4.33728466796875,-0.6926794052124023,-0.031125783920288086,-0.36511120200157166
1742766212223668000,4.35166796875,1.463606834411621,-0.008288323879241943,-0.3013329803943634
1742766212238051300,4.36605126953125,0.21883392333984375,-0.6768120527267456,0.7875025272369385
1742766212252434400,4.380434326171875,-0.5968389511108398,-0.41790392994880676,-0.4633796811103821
1742766212266817800,4.39481787109375,2.177173614501953,0.6686884760856628,-0.18518981337547302
1742766212281201200,4.409201171875,0.7569217681884766,-0.7807573080062866,0.301929235458374
1742766212295584500,4.42358447265625,2.1840810775756836,-0.5354205965995789,-0.6020196676254272
1742766212309967600,4.437967529296875,2.9305248260498047,-0.015729278326034546,0.17049719393253326
1742766212324351000,4.45235107421875,0.9619760513305664,0.14097490906715393,-0.18877354264259338
1742766212338734300,4.466734375,0.4401378631591797,-0.36632058024406433,-0.8490722179412842
1742766212353117700,4.48111767578125,3.7975339889526367,-0.5375867486000061,0.9092535376548767
1742766212367500800,4.495500732421875,-0.24953460693359375,-0.1325560212135315,-0.381176233291626
1742766212381884200,4.50988427734375,1.6768674850463867,0.5146387815475464,0.022571057081222534
1742766212396267500,4.524267578125,2.4781875610351562,-0.15758997201919556,0.038000255823135376
1742766212410651000,4.53865087890625,-0.9713277816772461,-0.47217023372650146,-0.45071226358413696
1742766212425034000,4.553033935546875,0.7634248733520508,-0.44266456365585327,0.03563019633293152
1742766212439417300,4.567417236328125,1.1273698806762695,0.41634348034858704,-0.37008264660835266
1742766212453800700,4.58180078125,-0.2610149383544922,-0.9437810182571411,0.24775251746177673
1742766212468184000,4.59618408203125,2.5197372436523438,-0.005384504795074463,0.033356547355651855
1742766212482567400,4.6105673828125,-1.9768190383911133,0.15336674451828003,-0.09987697005271912
1742766212496950500,4.624950439453125,2.5124950408935547,0.3886619210243225,-0.9547740817070007
1742766212511334000,4.639333984375,-0.23876190185546875,-0.537092924118042,-0.24852371215820312
1742766212525717200,4.65371728515625,0.3770713806152344,-0.3129236102104187,-0.0036832988262176514
1742766212540100600,4.6681005859375,0.6423187255859375,-0.07541847229003906,-0.5985790491104126
1742766212554483700,4.682483642578125,1.7777900695800781,0.794267475605011,-0.25019416213035583
1742766212568867000,4.6968671875,-0.3805971145629883,-0.7244561314582825,-0.4479200839996338
1742766212583250400,4.71125048828125,1.0716819763183594,0.1340118646621704,0.03794214129447937
1742766212597633800,4.7256337890625,-0.11617755889892578,-0.13287296891212463,0.2487092763185501
1742766212612017000,4.740016845703125,2.732161521911621,0.5123835206031799,-0.26530274748802185
1742766212626400300,4.754400146484375,1.0630207061767578,-0.40920326113700867,-0.7172994613647461
1742766212640783600,4.76878369140625,-1.3750238418579102,-0.4899692237377167,0.3033333420753479
1742766212655167000,4.7831669921875,2.002974510192871,-0.4462217688560486,0.19844216108322144
1742766212669550000,4.797550048828125,-0.5122690200805664,0.13086465001106262,-0.16575300693511963
1742766212683933400,4.811933349609375,-0.42786407470703125,-0.5478122234344482,-0.3300637900829315
1742766212698316800,4.82631689453125,1.8209810256958008,-0.21869254112243652,0.09768830239772797
1742766212712700200,4.8407001953125,0.13617992401123047,-0.202567458152771,-0.00840139389038086
1742766212727083500,4.85508349609375,0.9967889785766602,0.5861252546310425,-0.33077314496040344
1742766212741466600,4.869466552734375,0.41391944885253906,-0.8177585601806641,-0.4697043001651764
1742766212755850000,4.88385009765625,0.4488658905029297,-0.46925488114356995,0.20153027772903442
1742766212770233300,4.8982333984375,0.6661548614501953,-0.008031636476516724,-0.10702160000801086
1742766212784616700,4.91261669921875,2.4618396759033203,0.10469570755958557,-0.15778738260269165
1742766212798999800,4.926999755859375,0.0797567367553711,-0.07285690307617188,-0.6500266790390015
1742766212813383200,4.941383056640625,1.0912456512451172,-0.2781701982021332,-0.36964282393455505
1742766212827766500,4.9557666015625,2.712649345397949,-0.22688686847686768,-0.21778041124343872
1742766212842150000,4.97014990234375,0.8590726852416992,1.1797192096710205,0.2524417042732239
1742766212856533000,4.984532958984375,0.1381397247314453,-0.3192341923713684,-1.0280866622924805
1742766212870916400,4.998916259765625,1.2666091918945312,-0.08139604330062866,-0.1312982439994812
1742766212885299700,5.0132998046875,1.5440750122070312,0.37366926670074463,-0.44649654626846313
1742766212899683000,5.02768310546875,-0.26679229736328125,0.5349414944648743,-0.19105413556098938
1742766212914066400,5.04206640625,-0.14853382110595703,-0.3288072943687439,-0.2450852394104004
1742766212928449500,5.056449462890625,-0.11092758178710938,-0.2865756154060364,-0.28819575905799866
1742766212942833000,5.0708330078125,1.6570987701416016,0.1397632360458374,-0.46236899495124817
1742766212957216300,5.08521630859375,2.923844337463379,0.4064350128173828,-0.28168487548828125
1742766212971599600,5.099599609375,-2.280897617340088,-0.14534196257591248,-0.590274453163147
1742766212985982700,5.113982666015625,0.2536153793334961,-0.09502473473548889,0.18210463225841522
1742766213000366000,5.128365966796875,-0.09820842742919922,0.7024989128112793,-0.1927945613861084
1742766213014749400,5.14274951171875,0.6244583129882812,-0.06311222910881042,-0.4295068681240082
1742766213029132800,5.1571328125,1.3368358612060547,-0.15395605564117432,-1.1896944046020508
1742766213043516000,5.171515869140625,-2.3440732955932617,0.20137673616409302,0.5440114140510559
1742766213057899300,5.185899169921875,0.010300636291503906,0.254004567861557,0.34311413764953613
1742766213072282600,5.20028271484375,-0.17235565185546875,0.6836463212966919,-0.5633407831192017
1742766213086666000,5.214666015625,-0.05504608154296875,-0.36482787132263184,-0.6587944030761719
1742766213101049300,5.22904931640625,0.2826566696166992,0.10121488571166992,0.1706901639699936
1742766213115432400,5.243432373046875,-1.138798713684082,0.33614158630371094,-0.1862056851387024
1742766213129815800,5.25781591796875,-0.28430747985839844,0.004427313804626465,-0.22857072949409485
1742766213144199200,5.27219921875,-0.1519451141357422,-0.02800503373146057,-0.21779128909111023
1742766213158582500,5.28658251953125,-2.2305941581726074,-0.315621018409729,0.25393974781036377
1742766213172966000,5.3009658203125,-1.8369641304016113,0.1947590410709381,0.1026921272277832
1742766213187349000,5.315348876953125,0.4979372024536133,0.30682456493377686,-0.22022607922554016
1742766213201732400,5.329732421875,-2.0218758583068848,-0.768846333026886,-0.5458705425262451
1742766213216115700,5.34411572265625,-0.11022090911865234,0.5392688512802124,0.22056806087493896
1742766213230498800,5.358498779296875,0.5994539260864258,0.08682236075401306,0.4311451017856598
1742766213244882200,5.372882080078125,0.6531839370727539,0.9866605997085571,-0.4920411705970764
1742766213259265500,5.387265625,-0.3397512435913086,-0.17384403944015503,-0.3491460084915161
1742766213273649000,5.40164892578125,0.16079998016357422,0.05724853277206421,-0.011655539274215698
1742766213288032300,5.4160322265625,-1.7500028610229492,0.39475688338279724,0.21784479916095734
1742766213302415600,5.43041552734375,-0.8831672668457031,0.441161185503006,0.44659146666526794
1742766213316798700,5.444798828125,-0.6930627822875977,-0.6946627497673035,-0.2700907289981842
1742766213331182000,5.45918212890625,-0.8423280715942383,0.2177242636680603,0.1085963249206543
1742766213345565400,5.4735654296875,-0.23858261108398438,0.21855828166007996,0.4012260437011719
1742766213359948800,5.48794873046875,-1.1869525909423828,0.19354888796806335,0.38537582755088806
1742766213374332000,5.502331787109375,-1.6437206268310547,-0.339429646730423,-0.26709288358688354
1742766213388715300,5.51671533203125,-2.099644184112549,-0.23409923911094666,0.7198947668075562
1742766213403098600,5.5310986328125,1.0553855895996094,0.4082053005695343,0.278327614068985
1742766213417482000,5.54548193359375,-0.32773876190185547,0.24209722876548767,0.2877989411354065
1742766213431865000,5.559864990234375,-0.7852487564086914,-0.17582306265830994,-0.1993996500968933
1742766213446248400,5.57424853515625,-0.9937534332275391,-0.3532971739768982,0.6088444590568542
1742766213460631800,5.5886318359375,-1.9275851249694824,-0.008834391832351685,0.7227487564086914
1742766213475015200,5.60301513671875,-2.5571084022521973,0.3193081021308899,0.049933046102523804
1742766213489398500,5.6173984375,-0.8030176162719727,-0.7334926128387451,0.181715726852417
1742766213503781600,5.63178173828125,0.5338325500488281,-0.2938944697380066,0.6196986436843872
1742766213518165000,5.6461650390625,-0.18204116821289062,-0.12791705131530762,0.9154996275901794
1742766213532548400,5.66054833984375,-1.8786559104919434,0.47213128209114075,0.07427877187728882
1742766213546931700,5.674931640625,-1.3429841995239258,-0.6693617105484009,-0.13594010472297668
1742766213561314800,5.689314697265625,-1.650374412536621,-0.1989823281764984,0.421390563249588
1742766213575698200,5.7036982421875,-3.1244969367980957,-0.13447800278663635,0.2323841005563736
1742766213590081500,5.71808154296875,-1.2224617004394531,0.3051512539386749,0.7931853532791138
1742766213604465000,5.73246484375,0.147125244140625,-0.6519801616668701,0.23570236563682556
1742766213618848300,5.74684814453125,-0.7471675872802734,-0.39916932582855225,0.5059834718704224
1742766213633231600,5.761231689453125,-0.6476640701293945,0.2935623526573181,0.3360471725463867
1742766213647614700,5.77561474609375,-0.5014114379882812,0.5096784234046936,0.6748849749565125
1742766213661998000,5.789998046875,0.3112201690673828,-0.6035953164100647,0.06759604811668396
1742766213676381400,5.80438134765625,0.8196487426757812,-0.1955837607383728,0.42307335138320923
1742766213690764500,5.8187646484375,-1.0090837478637695,0.23466959595680237,0.1525595337152481
1742766213705148000,5.83314794921875,-0.8592386245727539,0.16380497813224792,0.9037554264068604
1742766213719531300,5.84753125,0.45915985107421875,-0.5374231934547424,0.17805330455303192
1742766213733914600,5.86191455078125,-3.2961440086364746,-0.48374128341674805,0.2062530219554901
1742766213748298000,5.876298095703125,-1.4363603591918945,-0.31698572635650635,-0.04007381200790405
1742766213762681300,5.890681396484375,-0.9463109970092773,0.20710811018943787,0.19779051840305328
1742766213777064400,5.905064453125,-1.9214930534362793,-0.39454132318496704,0.22653071582317352
1742766213791447800,5.91944775390625,-0.20087623596191406,-0.22648736834526062,0.4590006470680237
1742766213805831200,5.9338310546875,0.16382122039794922,-0.0766042172908783,-0.34618473052978516
1742766213820214500,5.948214599609375,-2.858977794647217,0.2856312096118927,0.3778533339500427
1742766213834597600,5.96259765625,-0.903681755065918,-0.8012330532073975,-0.21104922890663147
1742766213848981000,5.97698095703125,-0.2702188491821289,-0.22786661982536316,0.1841263622045517
1742766213863364400,5.9913642578125,-1.2712411880493164,0.12476685643196106,0.18595848977565765
1742766213877747700,6.005747802734375,-1.8509011268615723,0.08369025588035583,-0.058020949363708496
1742766213892131000,6.020131103515625,0.024720191955566406,-0.23207874596118927,0.3831809163093567
1742766213906514200,6.03451416015625,-0.23505210876464844,-0.3923698365688324,0.038015276193618774
1742766213920897500,6.0488974609375,-1.1495342254638672,-0.030263692140579224,-0.3929506242275238
1742766213935281000,6.063281005859375,0.8080101013183594,0.19227054715156555,0.3339281380176544
1742766213949664300,6.077664306640625,-1.427267074584961,-0.04117503762245178,-0.26728376746177673
1742766213964047400,6.09204736328125,0.6983108520507812,-0.27446115016937256,0.3378154933452606
1742766213978430700,6.1064306640625,1.6247873306274414,-0.009939998388290405,-0.08037447929382324
1742766213992814000,6.12081396484375,-0.884638786315918,0.451138973236084,-0.027816951274871826
1742766214007197400,6.135197509765625,0.5576906204223633,-0.35888001322746277,0.025631427764892578
1742766214021580800,6.149580810546875,0.39563846588134766,-0.03467494249343872,0.029646843671798706
1742766214035964200,6.163964111328125,2.234506607055664,-0.5551276803016663,-0.5667531490325928
1742766214050347300,6.17834716796875,-1.0083494186401367,0.3870616555213928,0.09806880354881287
1742766214064730600,6.192730712890625,0.8456335067749023,-0.1585383415222168,0.031911224126815796
1742766214079114000,6.207114013671875,1.7106914520263672,-0.799284815788269,0.02509903907775879
1742766214093497300,6.221497314453125,-0.21700191497802734,0.543724536895752,-0.06291350722312927
1742766214107880400,6.23588037109375,0.2751502990722656,0.45524466037750244,-0.26490452885627747
1742766214122263800,6.250263916015625,1.9255352020263672,-0.09534677863121033,-0.2710201144218445
1742766214136647200,6.264647216796875,2.2333755493164062,-0.22006022930145264,-0.2908690273761749
1742766214151030500,6.279030517578125,1.043539047241211,0.1066834032535553,-0.32431760430336
1742766214165414000,6.293413818359375,0.7152233123779297,0.54054856300354,0.12053252756595612
1742766214179797000,6.307796875,1.9770641326904297,-0.8540306091308594,-0.3227432370185852
1742766214194180400,6.322180419921875,0.2989044189453125,-0.16546288132667542,-0.6367321014404297
1742766214208563700,6.336563720703125,1.2721471786499023,0.027527064085006714,0.10102018713951111
1742766214222947000,6.350947021484375,0.5229625701904297,-0.07006028294563293,0.15971915423870087
1742766214237330200,6.365330078125,0.024390220642089844,-0.036842793226242065,-0.672885537147522
1742766214251713500,6.379713623046875,1.8698129653930664,-0.4894736409187317,-0.2970448136329651
1742766214266097000,6.394096923828125,2.154825210571289,-0.06324076652526855,-0.09697967767715454
1742766214280480300,6.408480224609375,0.19717025756835938,-0.05751112103462219,-0.10552641749382019
1742766214294863600,6.422863525390625,2.5144882202148438,0.08742031455039978,-0.5319856405258179
1742766214309247000,6.4372470703125,0.8986835479736328,-0.42216962575912476,0.2132076770067215
1742766214323630000,6.451630126953125,3.327223777770996,-0.17186903953552246,-0.4691389203071594
1742766214338013400,6.466013427734375,0.9655838012695312,0.3947703540325165,0.04059755802154541
1742766214352396800,6.480396728515625,2.0326433181762695,-0.705815315246582,-0.2906200885772705
1742766214366780200,6.4947802734375,1.1713199615478516,-0.19069108366966248,0.10005375742912292
1742766214381163500,6.50916357421875,0.6024408340454102,-0.12923136353492737,-0.4899587333202362
1742766214395546600,6.523546630859375,2.301629066467285,0.027940034866333008,-0.3391803801059723
1742766214409930000,6.537929931640625,1.9794397354125977,-0.44191497564315796,-0.1303429901599884
1742766214424313300,6.552313232421875,0.7519989013671875,-0.39698535203933716,-0.46264365315437317
1742766214438696700,6.56669677734375,2.2631540298461914,-0.11746615171432495,-0.1354973316192627
1742766214453079800,6.581079833984375,-0.9387235641479492,0.5719379186630249,-0.07897275686264038
1742766214467463200,6.595463134765625,2.9684057235717773,-0.3992713987827301,-0.5020803213119507
1742766214481846500,6.609846435546875,0.4035615921020508,-0.4819279611110687,-0.41414910554885864
1742766214496230000,6.62422998046875,1.5930595397949219,0.02651888132095337,-0.46168333292007446
1742766214510613200,6.63861328125,1.4827251434326172,0.45169001817703247,-0.24301385879516602
1742766214524996600,6.65299658203125,1.0170974731445312,-0.2924266457557678,-0.2737583518028259
1742766214539379700,6.667379638671875,1.7126874923706055,-0.5783998966217041,-0.3902879059314728
1742766214553763000,6.68176318359375,1.0270357131958008,0.05620396137237549,-0.3497297763824463
1742766214568146400,6.696146484375,2.099928855895996,0.107367604970932,-0.5694811940193176
1742766214582529800,6.71052978515625,1.936279296875,-0.41945505142211914,-0.584327220916748
1742766214596913000,6.724912841796875,1.1573486328125,-0.2056654691696167,-0.7174656391143799
1742766214611296300,6.739296142578125,2.1893577575683594,-0.36674055457115173,-0.639639139175415
1742766214625679600,6.7536796875,-0.8902807235717773,0.7373420596122742,-0.5493429899215698
1742766214640063000,6.76806298828125,0.2029867172241211,-0.5432066321372986,-0.40092897415161133
1742766214654446300,6.7824462890625,1.744215965270996,-0.17288950085639954,-0.30636775493621826
1742766214668829400,6.796829345703125,0.632537841796875,0.044069766998291016,-0.6543114185333252
1742766214683212800,6.811212890625,0.05364227294921875,0.8062844276428223,-0.36419668793678284
1742766214697596200,6.82559619140625,1.9820232391357422,-0.40079131722450256,-0.1505395770072937
1742766214711979500,6.8399794921875,-0.04706859588623047,-0.02969670295715332,-0.8534584045410156
1742766214726363000,6.85436279296875,0.8357868194580078,0.3226322829723358,-0.49344587326049805
1742766214740746200,6.868746337890625,1.3074531555175781,0.12522944808006287,-0.5837531089782715
1742766214755129300,6.88312939453125,0.31515026092529297,-0.23654943704605103,-0.024219214916229248
1742766214769512700,6.8975126953125,0.28032684326171875,-0.10353881120681763,0.07259055972099304
1742766214783896000,6.91189599609375,0.5659580230712891,0.050173163414001465,-0.6865063905715942
1742766214798279400,6.926279541015625,-0.725916862487793,0.9133137464523315,-0.5393387079238892
1742766214812662800,6.940662841796875,0.44509220123291016,-0.23748289048671722,-0.4537804424762726
1742766214827046000,6.9550458984375,-1.420358657836914,0.09861776232719421,-0.18846732378005981
1742766214841429200,6.96942919921875,-0.27153587341308594,0.40437567234039307,-0.32335734367370605
1742766214855812600,6.9838125,-0.7748823165893555,0.6327859163284302,-0.16141349077224731
1742766214870196000,6.998196044921875,-1.4451770782470703,-0.42769303917884827,-0.12184125185012817
1742766214884579300,7.012579345703125,-1.9085988998413086,-0.5646565556526184,0.2398201823234558
1742766214898962400,7.02696240234375,-0.9214134216308594,0.040014564990997314,-0.4572606086730957
1742766214913345800,7.041345703125,-0.7655105590820312,0.46268579363822937,-0.07768720388412476
1742766214927729200,7.055729248046875,-0.43071460723876953,-0.3472699224948883,-0.19999602437019348
1742766214942112500,7.070112548828125,-0.4712028503417969,-0.15633389353752136,-0.2471161186695099
1742766214956496000,7.084495849609375,-1.307692527770996,0.062103092670440674,-0.13824275135993958
1742766214970879000,7.09887890625,-0.8480033874511719,0.5186980962753296,-0.35604193806648254
1742766214985262300,7.113262451171875,-1.6697998046875,-0.7158132791519165,-0.04519978165626526
1742766214999645700,7.127645751953125,-1.6865644454956055,0.3228279948234558,0.35055047273635864
1742766215014029000,7.142029052734375,-2.1744532585144043,-0.38268181681632996,-0.041295140981674194
1742766215028412400,7.156412353515625,-0.35756587982177734,0.1367831826210022,-0.032794415950775146
1742766215042795800,7.170795654296875,-1.6116552352905273,-0.37372416257858276,0.4671117663383484
1742766215057179000,7.185178955078125,-0.12673282623291016,0.08699044585227966,0.007260143756866455
1742766215071562200,7.199562255859375,-0.03149223327636719,-0.2842658758163452,0.20865194499492645
1742766215085945600,7.213945556640625,-1.2311582565307617,0.24849826097488403,0.08565270900726318
1742766215100329000,7.228328857421875,-0.8788223266601562,-0.15893158316612244,0.06855544447898865
1742766215114712000,7.242712158203125,-0.13309955596923828,-0.3834555745124817,0.4667460322380066
1742766215129095400,7.257095458984375,-0.5621404647827148,-0.1619948446750641,0.03589525818824768
1742766215143478800,7.271478759765625,-1.1982154846191406,0.34412580728530884,0.270631343126297
1742766215157862100,7.285862060546875,-0.7294216156005859,-0.4204472303390503,0.18534503877162933
1742766215172245500,7.30024560546875,-1.8966469764709473,0.048790544271469116,0.09145620465278625
1742766215186628600,7.314628662109375,0.385772705078125,-0.07865980267524719,-0.0832076370716095
1742766215201012000,7.329011962890625,-0.9159402847290039,0.6070350408554077,0.5239682793617249
1742766215215395300,7.343395263671875,-0.7009801864624023,-0.16903209686279297,0.12280824780464172
1742766215229778700,7.35777880859375,-0.7030811309814453,-0.17458462715148926,0.25080442428588867
1742766215244162000,7.372162109375,-1.4011201858520508,-0.11703643202781677,0.43433037400245667
1742766215258545400,7.38654541015625,-2.689455509185791,0.6540420055389404,0.46780920028686523
1742766215272928500,7.400928466796875,-0.6472291946411133,-0.4929969310760498,-0.34276288747787476
1742766215287312000,7.415311767578125,0.338653564453125,-0.5625043511390686,0.36632731556892395
1742766215301695200,7.4296953125,-0.1967153549194336,0.15771913528442383,-0.00016960501670837402
1742766215316078600,7.44407861328125,0.7028617858886719,0.24363893270492554,-0.08868488669395447
1742766215330462000,7.4584619140625,-0.0853118896484375,-0.3762062191963196,0.060316622257232666
1742766215344845300,7.47284521484375,-1.3313426971435547,0.2749519944190979,0.3886217474937439
1742766215359228400,7.487228515625,0.04851245880126953,0.08764296770095825,-0.07869189977645874
1742766215373611800,7.50161181640625,0.2657499313354492,0.5621432662010193,-0.16905760765075684
1742766215387995100,7.5159951171875,0.2827320098876953,-0.4697721302509308,0.375744491815567
1742766215402378500,7.53037841796875,0.5529394149780273,0.13683831691741943,-0.494953989982605
1742766215416761900,7.544761962890625,-2.3206753730773926,-0.18499240279197693,0.49002188444137573
1742766215431145000,7.55914501953125,0.13733386993408203,0.22045466303825378,0.4990692436695099
1742766215445528300,7.5735283203125,-1.1565608978271484,-0.7999880909919739,0.3808523118495941
1742766215459911700,7.58791162109375,0.8857278823852539,-0.04208946228027344,0.42065128684043884
1742766215474295000,7.602294921875,1.6510601043701172,-0.368413507938385,-0.03805321455001831
1742766215488678400,7.616678466796875,0.9502582550048828,0.3584569990634918,-0.10996222496032715
1742766215503061800,7.631061767578125,1.6296567916870117,-0.38061073422431946,-0.5516082048416138
1742766215517444900,7.64544482421875,0.08218002319335938,0.049454569816589355,0.37988850474357605
1742766215531828200,7.659828125,0.37074947357177734,-0.29052940011024475,0.16872762143611908
1742766215546211600,7.674211669921875,1.505244255065918,0.6464889049530029,-0.13027486205101013
1742766215560595000,7.688594970703125,1.83477783203125,-0.9152518510818481,-0.05617848038673401
1742766215574978300,7.702978271484375,0.24044132232666016,0.1939239799976349,-0.2755350172519684
1742766215589361700,7.717361572265625,2.6210947036743164,-0.12714487314224243,0.13900339603424072
1742766215603744800,7.731744873046875,0.45026683807373047,0.09262731671333313,0.3930988907814026
1742766215618128100,7.746128173828125,0.5210323333740234,-0.2519405782222748,-0.4840517044067383
1742766215632511500,7.760511474609375,4.134024620056152,-0.6419776678085327,-0.17284366488456726
1742766215646894800,7.774894775390625,2.2022180557250977,-0.15660199522972107,0.32075005769729614
1742766215661278200,7.7892783203125,1.026921272277832,0.5242539644241333,-0.3961840569972992
1742766215675661300,7.803661376953125,2.477473258972168,-0.7777129411697388,-0.6506346464157104
1742766215690044700,7.818044677734375,0.9037046432495117,0.014710307121276855,0.10391202569007874
1742766215704428000,7.832427978515625,-0.1530141830444336,-0.15677326917648315,0.19208796322345734
1742766215718811400,7.846811279296875,1.8277873992919922,0.3024815320968628,-0.1494351029396057
1742766215733194800,7.86119482421875,1.2017478942871094,-0.4736725986003876,-0.2158784568309784
1742766215747578000,7.875578125,1.382735252380371,-0.16666609048843384,-0.11230337619781494
1742766215761961200,7.889961181640625,0.8308181762695312,0.10469472408294678,-0.3539589047431946
1742766215776344600,7.904344482421875,1.5976266860961914,0.11800625920295715,0.4222598671913147
1742766215790728000,7.91872802734375,-0.27584266662597656,-0.3735709488391876,-0.3780069947242737
1742766215805111300,7.933111328125,1.3660011291503906,-0.21709449589252472,-0.1312524378299713
1742766215819494700,7.94749462890625,1.6484174728393555,-0.14629867672920227,0.26696932315826416
1742766215833878000,7.9618779296875,1.0109119415283203,0.44306281208992004,-0.0989888608455658
1742766215848261000,7.97626123046875,0.7297468185424805,-0.5297369360923767,-0.6766073703765869
1742766215862644500,7.99064453125,-0.10336971282958984,0.2767179012298584,0.02005946636199951
1742766215877027800,8.00502783203125,0.071563720703125,0.08084675669670105,0.18412141501903534
1742766215891411200,8.0194111328125,-0.15108108520507812,0.6427783370018005,0.09532278776168823
1742766215905794600,8.033794677734376,-0.5756359100341797,-0.14852583408355713,-0.5230550765991211
1742766215920177700,8.048177734375,1.1460247039794922,-0.062168240547180176,0.1635889858007431
1742766215934561000,8.06256103515625,-0.8543500900268555,-0.05093538761138916,0.5933705568313599
1742766215948944400,8.0769443359375,0.8416519165039062,0.3369345963001251,0.21194802224636078
1742766215963327700,8.09132763671875,0.024160385131835938,-0.8716270327568054,0.4607020318508148
1742766215977711000,8.105711181640626,-1.132185935974121,0.2986750602722168,0.411458283662796
1742766215992094500,8.120094482421875,-0.6501836776733398,0.6680264472961426,0.24759185314178467
1742766216006477600,8.1344775390625,1.6410236358642578,0.18342727422714233,0.3715806305408478
1742766216020861000,8.14886083984375,0.7527875900268555,-0.2866747975349426,0.5334576368331909
1742766216035244300,8.163244384765624,-1.9679923057556152,0.046838074922561646,0.6506261229515076
1742766216049627600,8.177627685546875,-2.3412203788757324,0.18342986702919006,0.7229913473129272
1742766216064011000,8.192010986328125,-0.2920665740966797,0.33725276589393616,0.8336609601974487
1742766216078394400,8.206394287109376,-2.8713126182556152,-0.21525877714157104,0.21693925559520721
1742766216092777500,8.220777587890625,-2.732661724090576,0.26587042212486267,1.1197452545166016
1742766216107160800,8.235160888671874,-1.0664615631103516,-0.29029738903045654,1.01484215259552
1742766216121544200,8.249544189453125,-0.7631616592407227,0.23335084319114685,1.0196952819824219
1742766216135927600,8.263927490234375,-2.4588446617126465,-0.5080474019050598,0.5714931488037109
1742766216150311000,8.278310791015626,-1.8711252212524414,-0.3477587401866913,0.7726303339004517
1742766216164694300,8.2926943359375,-0.21591567993164062,0.10593774914741516,1.717160940170288
1742766216179077400,8.307077392578124,-0.849888801574707,-0.21200810372829437,1.4241663217544556
1742766216193460700,8.321460693359375,-3.3834424018859863,0.448908269405365,0.07379598915576935
1742766216207844000,8.335843994140625,-1.9466605186462402,-0.4788616895675659,1.2868022918701172
1742766216222227500,8.3502275390625,-1.121175765991211,-0.19726711511611938,1.2869054079055786
1742766216236610800,8.36461083984375,-3.512246608734131,0.000837177038192749,1.6360254287719727
1742766216250994000,8.378993896484374,-1.8764023780822754,0.011529982089996338,0.4995846152305603
1742766216265377300,8.393377197265625,-2.3554348945617676,0.021045178174972534,1.0778952836990356
1742766216279760600,8.4077607421875,0.15122413635253906,-0.02319049835205078,1.25955331325531
1742766216294144000,8.42214404296875,-1.1010150909423828,0.29391956329345703,1.5399317741394043
1742766216308527400,8.43652734375,-1.9596495628356934,-0.2503141164779663,1.419023036956787
1742766216322910700,8.45091064453125,-1.9047751426696777,-0.44447898864746094,1.2276909351348877
1742766216337293800,8.4652939453125,-0.9009256362915039,-0.060375720262527466,1.267145037651062
1742766216351677200,8.47967724609375,0.1694650650024414,-0.21041637659072876,1.2293388843536377
1742766216366060500,8.494060546875,-1.4102783203125,-0.15866735577583313,0.7724579572677612
1742766216380444000,8.50844384765625,-1.4200143814086914,-0.15087532997131348,1.0545157194137573
1742766216394827300,8.5228271484375,0.4556436538696289,-0.2989877462387085,1.1838748455047607
1742766216409210600,8.537210693359375,-0.9037513732910156,0.38596633076667786,0.8035647869110107
1742766216423594000,8.551593994140624,-2.628183364868164,0.29567575454711914,0.42115339636802673
1742766216437977000,8.56597705078125,0.08544635772705078,-0.4122598469257355,1.2404500246047974
1742766216452360400,8.5803603515625,1.170771598815918,-0.0339391827583313,0.7773767113685608
1742766216466743800,8.594743896484376,-0.9845199584960938,0.5171695947647095,0.9408882856369019
1742766216481127200,8.609127197265625,0.2824678421020508,0.30544114112854004,0.502943754196167
1742766216495510500,8.623510498046874,1.4015655517578125,-0.5363754630088806,0.9345179200172424
1742766216509894000,8.637893798828125,1.052250862121582,-0.18308967351913452,0.8866838216781616
1742766216524277000,8.652277099609375,-1.3129816055297852,0.26619112491607666,0.6545155048370361
1742766216538660400,8.666660400390626,1.4876956939697266,-0.15063464641571045,0.34453943371772766
1742766216553043700,8.681043701171875,2.2626523971557617,-0.23084430396556854,0.7744808793067932
1742766216567427000,8.695427001953124,-0.6841487884521484,0.1726563572883606,1.2329965829849243
1742766216581810400,8.709810546875,2.085211753845215,-0.017029136419296265,0.29784390330314636
1742766216596193800,8.72419384765625,0.5798244476318359,-0.3833523392677307,-0.16725046932697296
1742766216610577000,8.738576904296876,0.9012107849121094,0.026303082704544067,0.18180662393569946
1742766216624960300,8.752960205078125,3.290067672729492,-0.1698806881904602,0.9333144426345825
1742766216639343600,8.767343505859374,1.1121835708618164,-0.013560175895690918,0.275677889585495
1742766216653727000,8.78172705078125,2.1835899353027344,0.3549841344356537,0.1002192348241806
1742766216668110300,8.7961103515625,1.5995254516601562,-0.4706028401851654,0.5883700847625732
1742766216682493700,8.81049365234375,2.2350692749023438,-0.14295953512191772,0.2412704974412918
1742766216696876800,8.824876708984375,0.8358001708984375,0.053237587213516235,0.11430734395980835
1742766216711260200,8.83926025390625,2.8414363861083984,-0.37828949093818665,-0.2532770037651062
1742766216725643500,8.8536435546875,1.7820043563842773,-0.11188718676567078,0.662138819694519
1742766216740027000,8.86802685546875,1.2439632415771484,-0.19388705492019653,0.8791896104812622
1742766216754410200,8.88241015625,1.2246465682983398,0.007836997509002686,-0.03647682070732117
1742766216768793600,8.896793701171875,1.178065299987793,0.09051170945167542,-0.055780038237571716
1742766216783177000,8.911177001953124,1.443772315979004,-0.09348657727241516,0.11551305651664734
1742766216797560000,8.92556005859375,0.8273038864135742,0.20256942510604858,0.6236042976379395
1742766216811943400,8.939943359375,2.4415483474731445,-0.012503445148468018,-0.3782617449760437
1742766216826326800,8.954326904296876,1.3205623626708984,0.1607251763343811,-0.4060893654823303
1742766216840710100,8.968710205078125,1.2428560256958008,-0.08769163489341736,1.014740228652954
1742766216855093500,8.983093505859374,0.4362678527832031,-0.19707638025283813,0.8423380255699158
1742766216869476900,8.997476806640625,0.18787860870361328,0.1223067045211792,0.1161007508635521
1742766216883860000,9.01185986328125,2.8447351455688477,-0.07054921984672546,-0.46685343980789185
1742766216898243300,9.026243408203126,1.0906972885131836,0.3896343410015106,0.30969148874282837
1742766216912626700,9.040626708984375,0.18390274047851562,0.08190295100212097,0.8225375413894653
1742766216927010000,9.055010009765626,-0.6943502426147461,-0.0413345992565155,0.030103817582130432
1742766216941393400,9.069393310546875,-1.4205083847045898,0.19056478142738342,0.2522835433483124
1742766216955776800,9.08377685546875,-1.264089584350586,0.1168159544467926,0.6201679706573486
1742766216970160000,9.09816015625,0.7788906097412109,0.2288123369216919,0.8395522832870483
1742766216984543500,9.11254345703125,-1.2423458099365234,0.49958890676498413,-0.022190332412719727
1742766216998926600,9.126926513671876,0.009107589721679688,0.4415053129196167,0.10476523637771606
1742766217013310000,9.14131005859375,0.519740104675293,0.2112274467945099,0.8124987483024597
1742766217027693300,9.155693359375,-1.7126760482788086,-0.2548411190509796,1.150689959526062
1742766217042076700,9.17007666015625,0.39461708068847656,0.44370001554489136,0.16683977842330933
1742766217056460000,9.1844599609375,-0.7081480026245117,0.27757924795150757,0.029138147830963135
1742766217070843100,9.198843017578126,0.5667476654052734,-0.3508792519569397,0.596255362033844
1742766217085226500,9.2132265625,-1.3835763931274414,0.27154114842414856,1.0616391897201538
1742766217099609900,9.22760986328125,-2.8616700172424316,-0.3974122405052185,0.6534759998321533
1742766217113993200,9.2419931640625,-1.1513299942016602,0.2617058753967285,0.351936936378479
1742766217128376600,9.25637646484375,-2.0997705459594727,0.04941102862358093,1.7150094509124756
1742766217142760000,9.270760009765626,-1.3578662872314453,-0.09865954518318176,0.8539069294929504
1742766217157143300,9.285143310546875,-2.680821418762207,0.306905597448349,0.18620547652244568
1742766217171526700,9.299526611328124,-1.1082029342651367,0.06479567289352417,0.8995163440704346
1742766217185909800,9.31390966796875,-0.3972749710083008,-0.2630718946456909,1.2002867460250854
1742766217200293000,9.328293212890625,-3.424912452697754,-0.3458740711212158,1.5142674446105957
1742766217214676500,9.342676513671876,-2.633958339691162,-0.17719018459320068,1.1512106657028198
1742766217229059800,9.357059814453125,-1.6310386657714844,0.10447701811790466,0.621119499206543
1742766217243443200,9.371443115234374,0.11242008209228516,-0.6260228157043457,1.2478843927383423
1742766217257826600,9.38582666015625,-1.6466121673583984,0.01125943660736084,1.322034478187561
1742766217272209700,9.400209716796875,-2.550197124481201,0.058369338512420654,1.0722670555114746
1742766217286593000,9.414593017578126,0.2001352310180664,0.26584625244140625,0.5189031362533569
1742766217300976400,9.428976318359375,-0.46277618408203125,-0.17879649996757507,1.560072422027588
1742766217315359700,9.44335986328125,-2.482980251312256,0.214620441198349,0.6112306118011475
1742766217329743000,9.4577431640625,-2.1615471839904785,0.41266849637031555,0.558377206325531
1742766217344126500,9.47212646484375,-1.6294889450073242,0.21434089541435242,0.9732210636138916
1742766217358509800,9.486509765625,-1.5072460174560547,-0.22130709886550903,1.3678008317947388
1742766217372893000,9.500892822265625,-1.7557125091552734,-0.07725432515144348,1.1893514394760132
1742766217387276300,9.5152763671875,-2.1831917762756348,-0.22143062949180603,0.5838320851325989
1742766217401659600,9.52965966796875,-0.6777114868164062,0.09812596440315247,0.5653143525123596
1742766217416043000,9.54404296875,1.3113622665405273,-0.3377329111099243,0.8258421421051025
1742766217430426400,9.55842626953125,-0.6183366775512695,0.12832605838775635,0.5080573558807373
1742766217444809700,9.572809814453125,-0.29407405853271484,-0.35403677821159363,0.70722496509552
1742766217459193000,9.587193115234374,0.22605133056640625,0.031830787658691406,0.0795765072107315
1742766217473576400,9.601576416015625,1.139577865600586,-0.41749006509780884,1.1590477228164673
1742766217487959600,9.61595947265625,-0.9791889190673828,0.0295293927192688,0.265218585729599
1742766217502343000,9.630343017578125,-0.07035350799560547,0.37573206424713135,-0.03210566192865372
1742766217516726300,9.644726318359375,1.9935636520385742,0.07512363791465759,0.2207328975200653
1742766217531109600,9.659109619140626,0.7303342819213867,0.14094388484954834,0.5973227024078369
1742766217545493000,9.673492919921875,1.201528549194336,-0.4211691617965698,0.558673620223999
1742766217559876400,9.68787646484375,-0.3235054016113281,0.07519763708114624,0.5913986563682556
1742766217574259700,9.702259765625,0.9902172088623047,0.22627043724060059,0.3982243537902832
1742766217588643000,9.71664306640625,3.3267641067504883,-1.040717601776123,0.23815934360027313
1742766217603026200,9.731026123046876,0.8932313919067383,0.11698159575462341,0.27696672081947327
1742766217617409500,9.745409423828125,0.3186521530151367,0.07222667336463928,0.351205974817276
1742766217631793000,9.75979296875,3.9329147338867188,0.1569647192955017,-0.5872392654418945
1742766217646176300,9.77417626953125,3.2865381240844727,-0.8702686429023743,0.4669015407562256
1742766217660559600,9.7885595703125,0.038562774658203125,0.26090192794799805,0.14056988060474396
1742766217674943000,9.80294287109375,1.1231622695922852,-0.09534919261932373,-0.19622956216335297
1742766217689326300,9.817326416015625,1.8466253280639648,0.16632592678070068,-0.3047877848148346
1742766217703709400,9.83170947265625,3.0328617095947266,-0.46508926153182983,-0.04325616732239723
1742766217718092800,9.8460927734375,2.049325942993164,0.24622762203216553,-0.0505744107067585
1742766217732476200,9.86047607421875,0.823552131652832,0.1612316370010376,0.05292285978794098
1742766217746859500,9.874859619140626,0.9905328750610352,-0.1844691038131714,0.1391262412071228
1742766217761243000,9.889242919921875,2.342902183532715,-0.2818896174430847,-0.19340726733207703
1742766217775626200,9.903626220703124,3.4343948364257812,0.02134081721305847,-0.45635610818862915
1742766217790009600,9.918009521484375,0.4618368148803711,-0.43636348843574524,0.12811748683452606
1742766217804393000,9.93239306640625,2.7935190200805664,0.3428161144256592,-0.572058916091919
1742766217818776000,9.946776123046876,3.425018310546875,-0.7713509798049927,0.060222696512937546
1742766217833159400,9.961159423828125,-1.3189172744750977,0.8454734683036804,-0.5298164486885071
1742766217847542800,9.975542724609374,0.43772125244140625,-0.004087209701538086,-0.15258167684078217
1742766217861926100,9.989926025390625,1.520564079284668,0.42465364933013916,-0.36432120203971863
1742766217876309500,10.0043095703125,1.5226325988769531,-0.1328231394290924,0.4903261065483093
1742766217890692900,10.01869287109375,0.07927608489990234,0.13465029001235962,0.052013542503118515
1742766217905076200,10.033076171875,0.2659626007080078,0.529803991317749,-0.8463234901428223
1742766217919459600,10.04745947265625,0.6630353927612305,0.18869167566299438,-0.47303763031959534
1742766217933842700,10.0618427734375,-0.6048030853271484,-0.1803899109363556,0.44153860211372375
1742766217948226000,10.07622607421875,-0.025758743286132812,0.07893097400665283,-0.13303221762180328
1742766217962609400,10.090609375,-0.3454322814941406,-0.2963075041770935,-0.5147770643234253
1742766217976992800,10.10499267578125,0.10352420806884766,0.5046324729919434,-0.2296418994665146
1742766217991376100,10.119376220703124,0.5057621002197266,-0.09762898087501526,-0.1776730716228485
1742766218005759500,10.133759521484375,-0.4350748062133789,0.27979040145874023,0.15250086784362793
1742766218020142800,10.148142822265624,-1.964552402496338,-0.10863173007965088,-0.683364987373352
1742766218034526000,10.16252587890625,-0.9712543487548828,0.4176681935787201,0.03379359096288681
1742766218048909300,10.176909423828125,1.3353958129882812,-0.14713358879089355,-0.059443145990371704
1742766218063292700,10.191292724609376,-0.9835529327392578,0.020741760730743408,-0.19590222835540771
1742766218077676000,10.205676025390625,0.042860984802246094,0.35602718591690063,-0.2709473669528961
1742766218092059400,10.220059326171874,-1.5920133590698242,0.22388657927513123,0.3636492192745209
1742766218106442800,10.23444287109375,0.1250324249267578,-0.3020721673965454,0.3744487464427948
1742766218120826000,10.248826171875,-3.069800853729248,0.14187556505203247,-0.5153194665908813
1742766218135209500,10.26320947265625,-1.786916732788086,-0.12919262051582336,0.10829510539770126
1742766218149592600,10.277592529296875,-1.522263526916504,0.42987290024757385,0.5449832081794739
1742766218163976000,10.291975830078124,-0.33870983123779297,-0.19362163543701172,0.03338512033224106
1742766218178359300,10.306359375,0.012282371520996094,-0.5071923136711121,-0.010963834822177887
1742766218192742700,10.32074267578125,-3.494974136352539,0.2573436498641968,0.14477623999118805
1742766218207126000,10.3351259765625,-4.083095073699951,0.779243528842926,0.10648564249277115
1742766218221509400,10.34950927734375,-1.8986592292785645,-0.1559935212135315,0.5442752242088318
1742766218235892700,10.363892822265624,0.5359992980957031,-0.40429800748825073,0.3518216907978058
1742766218250276000,10.378276123046875,-2.545738697052002,0.2383827567100525,0.39970090985298157
1742766218264659200,10.3926591796875,-1.9831585884094238,0.29000842571258545,0.3808159828186035
1742766218279042600,10.40704248046875,0.09172534942626953,-1.1388994455337524,0.6435355544090271
1742766218293426000,10.421426025390625,-2.1933412551879883,0.39710766077041626,-0.11334148794412613
1742766218307809300,10.435809326171874,-0.5379457473754883,-0.785078763961792,0.34889519214630127
1742766218322192600,10.450192626953125,-2.3026323318481445,0.5753780007362366,0.6918375492095947
1742766218336576000,10.464575927734375,0.7528343200683594,-0.3338051438331604,0.017491281032562256
1742766218350959400,10.47895947265625,-1.047811508178711,-0.42631593346595764,0.31874358654022217
1742766218365342700,10.4933427734375,-0.7862024307250977,0.1779865324497223,0.4617041349411011
1742766218379726000,10.50772607421875,-2.2506585121154785,0.2227117419242859,0.6185595393180847
1742766218394109200,10.522109130859375,0.4665803909301758,-0.02391567826271057,-0.07274284958839417
1742766218408492500,10.536492431640625,-0.8947219848632812,-0.014812946319580078,-0.6640708446502686
1742766218422876000,10.5508759765625,-1.2272682189941406,0.3857077658176422,-0.03818991780281067
1742766218437259300,10.56525927734375,-0.9019889831542969,0.4224783778190613,0.3958825469017029
1742766218451642600,10.579642578125,-0.06773757934570312,-0.22378650307655334,0.2842887341976166
1742766218466026000,10.59402587890625,-0.5624847412109375,-0.33112049102783203,0.017499752342700958
1742766218480409300,10.608409423828125,-0.5933828353881836,0.012433409690856934,-0.5495457053184509
1742766218494792700,10.622792724609376,0.38428211212158203,0.04683145880699158,-0.03436272218823433
1742766218509175800,10.63717578125,2.1819095611572266,-0.22800076007843018,0.028505854308605194
1742766218523559200,10.65155908203125,-0.2587728500366211,0.1117306649684906,0.08594831824302673
1742766218537942500,10.665942626953125,0.17184162139892578,-0.24936987459659576,-0.30084100365638733
1742766218552326000,10.680325927734375,1.1714658737182617,0.5695263147354126,0.16126666963100433
1742766218566709200,10.694709228515626,2.2216110229492188,0.06277760863304138,-0.41737937927246094
1742766218581092600,10.709092529296875,1.9705142974853516,-0.6360054016113281,-1.2459837198257446
1742766218595476000,10.72347607421875,0.983271598815918,0.8287774324417114,-0.8980015516281128
1742766218609859300,10.737859375,3.340622901916504,0.11638420820236206,1.1826276779174805
1742766218624242700,10.75224267578125,6.704189300537109,0.2782013714313507,-1.1593506336212158
1742766218638625800,10.766625732421875,3.1585206985473633,-0.6157497763633728,-1.5890182256698608
1742766218653009200,10.781009033203125,-0.02893829345703125,-0.29544389247894287,-0.28782859444618225
1742766218667392500,10.795392578125,-1.6403312683105469,-0.1779356300830841,-0.2411641776561737
1742766218681775900,10.80977587890625,-0.37259387969970703,-0.5481802225112915,1.2276145219802856
1742766218696159200,10.8241591796875,-2.4052224159240723,-0.33898240327835083,-0.16497686505317688
1742766218710542600,10.83854248046875,-0.7208423614501953,0.08936300873756409,-0.4872922897338867
1742766218724926000,10.852926025390625,-0.5932130813598633,0.8792084455490112,0.01432093232870102
1742766218739309300,10.867309326171876,2.7363805770874023,-0.0963430106639862,-0.9446664452552795
1742766218753692400,10.8816923828125,5.604763984680176,-0.32374417781829834,-0.9385086297988892
1742766218768075800,10.89607568359375,5.582510948181152,-0.0575602650642395,-0.6222085356712341
1742766218782459100,10.910459228515625,3.378720283508301,0.5522195100784302,0.5930827856063843
1742766218796842500,10.924842529296875,2.05908203125,0.02122148871421814,-0.9183793663978577
1742766218811225900,10.939225830078126,-2.2681469917297363,-0.3912549316883087,-0.7874934673309326
1742766218825609200,10.953609130859375,-0.8354606628417969,-0.09997135400772095,0.729907751083374
1742766218839992600,10.96799267578125,-0.5510387420654297,0.5586689710617065,-0.25515565276145935
1742766218854376000,10.9823759765625,0.37868404388427734,-0.7148522138595581,-0.6307764649391174
1742766218868759300,10.99675927734375,1.6232643127441406,-0.1596859097480774,0.03222111240029335
1742766218883142700,11.011142578125,1.7563610076904297,0.0875057578086853,-0.41189271211624146
1742766218897525800,11.02552587890625,3.082712173461914,0.411143034696579,-0.08288775384426117
1742766218911909000,11.0399091796875,1.8950672149658203,0.0956164300441742,-1.2953780889511108
1742766218926292500,11.05429248046875,1.1932792663574219,-0.0975106954574585,-0.20545385777950287
1742766218940675800,11.06867578125,0.9493589401245117,-0.3542783856391907,-0.6430796980857849
1742766218955059200,11.08305908203125,0.5175256729125977,0.5581623911857605,0.2772984504699707
1742766218969442600,11.097442626953125,0.655548095703125,-0.22177651524543762,-0.8083577156066895
1742766218983826000,11.111825927734374,0.18751811981201172,0.2941471338272095,-0.10205718129873276
1742766218998209300,11.126209228515625,0.9292964935302734,-0.03645405173301697,-0.06700879335403442
1742766219012592600,11.140592529296875,0.5082273483276367,0.7055376172065735,-0.12445709854364395
1742766219026975700,11.154975830078126,0.21445655822753906,0.02438598871231079,-0.2680632472038269
1742766219041359000,11.169359130859375,-0.3843059539794922,-0.02768164873123169,-0.7905870676040649
1742766219055742500,11.183742431640624,-0.33143138885498047,-0.1878710687160492,0.2688761055469513
1742766219070125800,11.198125732421875,1.697587013244629,0.24421775341033936,-0.21361306309700012
1742766219084509200,11.21250927734375,-2.707627296447754,0.14240148663520813,-0.5262431502342224
1742766219098892500,11.226892578125,-1.354630470275879,0.23364555835723877,0.09783914685249329
1742766219113276000,11.24127587890625,-0.5960559844970703,0.09726172685623169,0.14896953105926514
1742766219127659300,11.2556591796875,-0.10414505004882812,0.28952914476394653,1.0140514373779297
1742766219142042600,11.270042724609375,-0.8713178634643555,0.6659098863601685,-0.8091248869895935
1742766219156426000,11.284426025390625,-2.0668463706970215,0.9050146341323853,0.47226643562316895
1742766219170809300,11.298809326171876,0.10493946075439453,-0.20258057117462158,0.48924124240875244
1742766219185192700,11.313192626953125,-1.0520401000976562,0.40144696831703186,0.8481958508491516
1742766219199575800,11.327575927734374,-0.728520393371582,-0.46543294191360474,-0.4582246243953705
1742766219213959200,11.341959228515625,-1.7071247100830078,-0.14727744460105896,0.38611674308776855
1742766219228342500,11.356342529296874,-0.0956888198852539,-0.6570984125137329,0.6492993235588074
1742766219242726000,11.370725830078126,-1.4865598678588867,-0.15128257870674133,0.5975787043571472
1742766219257109200,11.385109130859375,-3.2259039878845215,0.2250111997127533,-0.07149380445480347
1742766219271492600,11.39949267578125,-2.082930088043213,0.03438571095466614,0.27465009689331055
1742766219285876000,11.4138759765625,-1.0501422882080078,-0.16888761520385742,0.7232653498649597
1742766219300259300,11.42825927734375,-0.512263298034668,0.7560597658157349,0.4071882665157318
1742766219314642700,11.442642578125,-1.295680046081543,-0.051816076040267944,0.4734002947807312
1742766219329025800,11.45702587890625,-1.0020980834960938,0.03816366195678711,0.24007001519203186
1742766219343409200,11.4714091796875,-1.1775140762329102,-0.14757049083709717,-0.021771177649497986
1742766219357792500,11.48579248046875,-2.7034850120544434,-0.12824299931526184,1.0108630657196045
1742766219372176000,11.50017578125,-2.237468719482422,-0.06179770827293396,0.3275630474090576
1742766219386559200,11.514559326171875,-1.1910076141357422,-0.4080369770526886,0.780544102191925
1742766219400942600,11.528942626953125,0.7326288223266602,-0.18827146291732788,-0.027634810656309128
1742766219415326000,11.543325927734376,-2.361876964569092,0.77977055311203,0.602902889251709
1742766219429709300,11.557709228515625,0.5138540267944336,0.47248637676239014,-0.6193281412124634
1742766219444092700,11.5720927734375,-3.3567233085632324,0.3886439800262451,0.4153052270412445
1742766219458476000,11.58647607421875,0.1053628921508789,-0.1951354444026947,0.7851781249046326
1742766219472859100,11.600859130859375,-2.263841152191162,-0.05071985721588135,0.37582892179489136
1742766219487242500,11.615242431640626,-1.0491313934326172,-0.24859076738357544,-0.1755857616662979
1742766219501625900,11.6296259765625,-0.39522266387939453,-0.24463987350463867,-0.011573351919651031
1742766219516009200,11.64400927734375,-0.7792415618896484,0.24647146463394165,0.4245862662792206
1742766219530392600,11.658392578125,2.060276985168457,0.01706242561340332,0.43526414036750793
1742766219544776000,11.67277587890625,-0.8460769653320312,0.5876336693763733,-0.8813091516494751
1742766219559159300,11.6871591796875,0.6692314147949219,-0.10949799418449402,-0.14261966943740845
1742766219573542700,11.701542724609375,2.5865306854248047,0.053858667612075806,-0.2463339865207672
1742766219587926000,11.715926025390624,0.4899435043334961,0.4943689703941345,0.08183705061674118
1742766219602309400,11.730309326171875,1.6334171295166016,-0.41504088044166565,-0.8075481653213501
1742766219616692700,11.744692626953125,-0.8266935348510742,0.16324689984321594,-0.5289415121078491
1742766219631076000,11.759076171875,-0.6789159774780273,-0.34835994243621826,0.640925943851471
1742766219645459200,11.773459228515625,1.1558399200439453,0.9031408429145813,-0.40514039993286133
1742766219659842600,11.787842529296874,-0.24619674682617188,0.1139490008354187,-0.46995073556900024
1742766219674226000,11.802225830078125,2.1866941452026367,0.6500626802444458,0.03287634253501892
1742766219688609300,11.816609375,1.417135238647461,-0.12890174984931946,0.36120903491973877
1742766219702992600,11.83099267578125,1.6115789413452148,0.05271729826927185,-0.05342324078083038
1742766219717376000,11.8453759765625,2.2340688705444336,-0.39334172010421753,-1.19814932346344
1742766219731759400,11.85975927734375,1.0388622283935547,0.0067861974239349365,-0.3572395443916321
1742766219746142700,11.874142822265625,2.0974950790405273,-0.5179796814918518,0.5405151844024658
1742766219760526000,11.888526123046875,0.5823764801025391,0.11250695586204529,-0.21747201681137085
1742766219774909400,11.902909423828126,0.7335853576660156,-0.09457078576087952,-0.6271772384643555
1742766219789292800,11.917292724609375,1.9495363235473633,0.028991490602493286,0.37315618991851807
1742766219803676200,11.93167626953125,0.7773647308349609,0.06695035099983215,0.11036358028650284
1742766219818059500,11.9460595703125,2.3281612396240234,0.22523853182792664,-0.277599036693573
1742766219832442600,11.960442626953125,1.8033380508422852,-0.21158576011657715,-0.8365137577056885
1742766219846826000,11.974825927734376,1.3942346572875977,0.020499974489212036,0.39599743485450745
1742766219861209300,11.989209228515625,0.8367700576782227,-0.06540247797966003,0.046184390783309937
1742766219875592700,12.0035927734375,0.6003456115722656,0.4479033648967743,-0.4275810718536377
1742766219889976000,12.01797607421875,0.4841470718383789,-0.6792706251144409,-0.18515644967556
1742766219904359400,12.032359375,-1.1390228271484375,0.027044177055358887,-0.5473859310150146
1742766219918742800,12.04674267578125,0.6367282867431641,-0.1728089451789856,0.2018096148967743
1742766219933126100,12.061126220703125,3.256378173828125,-0.26350289583206177,0.14257517457008362
1742766219947509500,12.075509521484374,0.11824321746826172,0.04599270224571228,-0.8185162544250488
1742766219961892900,12.089892822265625,1.1759490966796875,0.3946424424648285,-0.7751151919364929
1742766219976276200,12.104276123046875,1.2267990112304688,0.39864078164100647,0.027040809392929077
1742766219990659600,12.11865966796875,-0.0106048583984375,0.24609383940696716,-0.35612958669662476
1742766220005042700,12.133042724609375,0.8451108932495117,0.38769036531448364,-1.1779766082763672
1742766220019426000,12.147426025390626,1.7625741958618164,0.057555317878723145,-0.0169711634516716
1742766220033809400,12.161809326171875,2.457700729370117,0.021712660789489746,0.36074283719062805
1742766220048192800,12.17619287109375,-0.8251028060913086,0.8690713047981262,-0.31276220083236694
1742766220062576000,12.190576171875,0.4424858093261719,0.018055886030197144,-0.5512939691543579
1742766220076959500,12.20495947265625,0.24556446075439453,0.2903057336807251,-0.2673942446708679
1742766220091342800,12.2193427734375,0.41315460205078125,-0.12046673893928528,-0.053880803287029266
1742766220105726200,12.233726318359375,0.4607353210449219,-0.0827433168888092,0.08207978308200836
1742766220120109600,12.248109619140624,0.0027189254760742188,0.3551356792449951,-0.640699028968811
1742766220134493000,12.262492919921876,1.2480649948120117,0.2154848575592041,0.1172931119799614
1742766220148876300,12.276876220703125,-0.1080484390258789,0.638547956943512,-0.01578070968389511
1742766220163259600,12.291259765625,-2.0346474647521973,0.43756991624832153,-0.3325759172439575
1742766220177643000,12.30564306640625,0.7228527069091797,0.5030317306518555,-0.22843009233474731
1742766220192026000,12.320026123046874,-1.4323234558105469,0.164728581905365,0.07408464699983597
1742766220206409500,12.334409423828125,-0.1254262924194336,0.3171977996826172,0.36385083198547363
1742766220220792800,12.348792724609375,-0.6922702789306641,0.21149933338165283,0.4935651421546936
1742766220235176200,12.36317626953125,-2.0911669731140137,0.5861954092979431,-0.11352784186601639
1742766220249559600,12.3775595703125,-2.5999293327331543,0.44883298873901367,0.21780556440353394
1742766220263943000,12.39194287109375,-0.45581912994384766,-0.077111154794693,0.9983065128326416
1742766220278326300,12.406326171875,-1.9694762229919434,0.22582966089248657,-0.01827869564294815
1742766220292709600,12.420709716796875,-2.564568519592285,0.10003739595413208,0.014406166970729828
1742766220307093000,12.435093017578126,-1.1047649383544922,-0.14112505316734314,0.5369519591331482
1742766220321476400,12.449476318359375,-1.7475471496582031,0.34003525972366333,0.6692139506340027
1742766220335859700,12.463859619140624,-1.9474587440490723,0.20869874954223633,0.449349045753479
1742766220350243000,12.4782431640625,-3.8155155181884766,0.7374588251113892,-0.37999802827835083
1742766220364626400,12.49262646484375,-3.4887523651123047,-0.1403035819530487,0.5671858787536621
1742766220379009800,12.507009765625,-1.6053037643432617,-0.3350892663002014,1.2319457530975342
1742766220393393000,12.521392822265625,-3.1599488258361816,0.23751592636108398,0.5948985815048218
1742766220407776500,12.535776611328124,-2.0000357627868652,-0.022521108388900757,0.06364917755126953
1742766220422159600,12.55015966796875,-3.1893768310546875,-0.095868319272995,1.0213136672973633
1742766220436543000,12.56454296875,-2.268035888671875,-0.0036945343017578125,1.5162924528121948
1742766220450926300,12.57892626953125,-3.014364719390869,0.039231717586517334,0.2737007141113281
1742766220465309700,12.593309814453125,-1.284306526184082,-0.15810471773147583,0.2020813226699829
1742766220479693000,12.607693115234374,-0.9593257904052734,-0.46902355551719666,0.9088309407234192
1742766220494076400,12.622076416015625,-0.9293479919433594,-0.16451102495193481,1.2242034673690796
1742766220508459800,12.636459716796875,-2.94856595993042,0.38773536682128906,0.26223939657211304
1742766220522843100,12.650843017578126,-3.1291322708129883,0.4727664589881897,0.2250061333179474
1742766220537226500,12.6652265625,-1.3394231796264648,-0.12285611033439636,0.5970203876495361
1742766220551609900,12.67960986328125,-3.453094959259033,-0.07574388384819031,1.282064437866211
1742766220565993200,12.6939931640625,-1.776693344116211,-0.233888179063797,0.11902584880590439
1742766220580376600,12.70837646484375,-0.9539051055908203,0.5034173130989075,-0.5103136897087097
1742766220594760000,12.722760009765626,-3.039182186126709,-0.01826399564743042,0.5315617322921753
1742766220609143000,12.73714306640625,-0.3750324249267578,-0.24324244260787964,0.047877855598926544
1742766220623526400,12.7515263671875,-0.6961307525634766,-0.027546972036361694,0.38446518778800964
1742766220637909800,12.76590966796875,-0.6532583236694336,-0.22182399034500122,0.12057935446500778
1742766220652293000,12.780293212890625,-1.289109230041504,0.07780647277832031,0.4185759127140045
1742766220666676500,12.794676513671876,0.5271701812744141,-0.09281930327415466,0.6579166650772095
1742766220681059800,12.809059814453125,-0.7933282852172852,0.5063018202781677,-0.32730305194854736
1742766220695443200,12.823443115234374,-1.9856667518615723,0.6445884108543396,-0.4087418019771576
1742766220709826600,12.83782666015625,0.7152271270751953,0.435713529586792,0.3942679762840271
1742766220724210000,12.8522099609375,0.32186126708984375,-0.7070062160491943,1.9638985395431519
1742766220738593300,12.86659326171875,-0.3407163619995117,1.76328706741333,-0.7752302885055542
1742766220752976600,12.8809765625,1.4777030944824219,-0.3341348171234131,-2.2788302898406982
1742766220767360000,12.895360107421874,3.1819334030151367,-1.073908805847168,1.667380452156067
1742766220781743400,12.909743408203125,-5.17158842086792,0.6220566034317017,0.4906007647514343
1742766220796126700,12.924126708984375,0.24016952514648438,-0.1436854898929596,0.08827897906303406
1742766220810510000,12.938510009765626,3.8457155227661133,-1.109663963317871,0.23457151651382446
1742766220824893400,12.9528935546875,-2.427277088165283,0.3127206563949585,-0.7243795394897461
1742766220839276800,12.96727685546875,-1.1837034225463867,-0.3008634150028229,0.19679340720176697
1742766220853660000,12.981659912109375,0.862645149230957,-0.2663339376449585,0.2402261197566986
1742766220868043300,12.996043212890624,-3.075045108795166,-0.6438959836959839,-1.142960548400879
1742766220882426600,13.010426513671876,2.0018959045410156,0.2777554988861084,0.3859066963195801
1742766220896810000,13.02481005859375,1.5232419967651367,0.42622601985931396,0.04131150245666504
1742766220911193300,13.039193359375,1.201777458190918,0.4463040828704834,-0.28370583057403564
1742766220925576700,13.05357666015625,0.41378021240234375,0.19633376598358154,-0.3845842778682709
1742766220939960000,13.0679599609375,2.153371810913086,0.20900118350982666,-0.026465758681297302
1742766220954343400,13.082343505859376,-0.6956872940063477,-0.6197210550308228,-0.11617730557918549
1742766220968726800,13.096726806640625,-0.04665565490722656,-0.0028234124183654785,-0.23807677626609802
1742766220983110100,13.111110107421876,0.7060508728027344,-0.03533655405044556,-0.8445224761962891
1742766220997493500,13.125493408203125,1.604691505432129,0.20483535528182983,0.1454661637544632
1742766221011876900,13.139876953125,3.684849739074707,-0.29316267371177673,-0.3226179778575897
1742766221026260200,13.15426025390625,2.3229455947875977,0.22919315099716187,-0.386715292930603
1742766221040643600,13.1686435546875,1.2553949356079102,0.5604739189147949,-0.20082655549049377
1742766221055027000,13.18302685546875,0.9400978088378906,0.5088409781455994,-0.06434846669435501
1742766221069410300,13.197410400390625,1.3967351913452148,-0.24378442764282227,-0.5126001834869385
1742766221083793700,13.211793701171874,0.19854259490966797,0.1708660125732422,-0.23677538335323334
1742766221098177000,13.226177001953126,-0.6103029251098633,0.29046207666397095,-0.5304738283157349
1742766221112560000,13.24056005859375,1.0857477188110352,0.11287951469421387,-0.34351998567581177
1742766221126943700,13.25494384765625,1.9534330368041992,-0.5185691714286804,0.5154381394386292
1742766221141326800,13.269326904296875,2.2656660079956055,-0.0022432804107666016,-0.6515660881996155
1742766221155710200,13.283710205078124,2.276778221130371,-0.29254209995269775,-0.28696295619010925
1742766221170093600,13.298093505859375,4.2036943435668945,-0.1697242558002472,-0.2276480793952942
1742766221184477000,13.312476806640625,1.9488086700439453,0.09865695238113403,0.07154252380132675
1742766221198860300,13.3268603515625,3.507373809814453,-0.021587789058685303,-0.11398836225271225
1742766221213243600,13.34124365234375,-0.9986209869384766,0.31068986654281616,-0.6833994388580322
1742766221227627000,13.355626953125,1.309896469116211,0.43927663564682007,-0.1337575763463974
1742766221242010400,13.37001025390625,2.9378795623779297,-0.45754891633987427,0.3172094523906708
1742766221256393700,13.384393798828125,2.295377731323242,-0.2393854558467865,-0.13533981144428253
1742766221270777000,13.398777099609376,0.9670934677124023,0.26814353466033936,-0.3628687560558319
1742766221285160400,13.413160400390625,1.6113262176513672,-0.12629899382591248,0.34634798765182495
1742766221299543800,13.427543701171874,1.972799301147461,-0.3032209873199463,0.0745062455534935
1742766221313927200,13.44192724609375,0.31375885009765625,0.18001317977905273,-0.05671193450689316
1742766221328310500,13.456310546875,0.7878532409667969,-0.21776339411735535,-0.8452653884887695
1742766221342694000,13.47069384765625,0.4892463684082031,-0.26968520879745483,0.11277903616428375
1742766221357077200,13.4850771484375,-0.1642446517944336,-0.2900225818157196,0.04882434010505676
1742766221371460600,13.499460693359374,1.2097282409667969,-0.17370197176933289,0.3923057019710541
1742766221385844000,13.513843994140625,1.777604103088379,0.1943250298500061,-0.8003407716751099
1742766221400227300,13.528227294921875,0.28242015838623047,0.45097923278808594,-0.010386951267719269
1742766221414610700,13.542610595703126,2.6059627532958984,0.2702885866165161,-0.8505164980888367
1742766221428994000,13.556994140625,1.0756092071533203,0.4476397633552551,-0.41841986775398254
1742766221443377200,13.571377197265624,2.2684364318847656,-0.13980504870414734,-0.524544894695282
1742766221457760800,13.5857607421875,0.44715118408203125,0.10450637340545654,0.3041064143180847
1742766221472144000,13.600143798828125,-0.3495025634765625,-0.016804754734039307,-0.3134143650531769
1742766221486527200,13.61452734375,-0.3645963668823242,-0.15811651945114136,-0.15092986822128296
1742766221500910600,13.62891064453125,-0.2331256866455078,0.26084214448928833,-0.7562000751495361
1742766221515294000,13.6432939453125,1.6671104431152344,-0.14570435881614685,-0.1740591824054718
1742766221529677300,13.65767724609375,1.6329803466796875,0.30340027809143066,-0.13951051235198975
1742766221544060700,13.672060791015625,1.8926887512207031,0.45891427993774414,-0.16124868392944336
1742766221558444000,13.686444091796876,0.2785625457763672,-0.0607316792011261,-0.6664229035377502
1742766221572827400,13.700827392578125,-0.14386367797851562,0.6478649377822876,-0.5344856977462769
1742766221587210800,13.715210693359374,-0.6974658966064453,0.047503530979156494,-0.08983413875102997
1742766221601594000,13.729593994140625,-0.12384223937988281,-0.050882935523986816,-0.35160234570503235
1742766221615977500,13.7439775390625,-0.5636892318725586,-0.1482732892036438,-0.9820901155471802
1742766221630360800,13.75836083984375,-1.3174877166748047,0.19749903678894043,-0.17413103580474854
1742766221644744200,13.772744140625,0.9415493011474609,0.44938957691192627,-0.19112151861190796
1742766221659127600,13.78712744140625,0.16754150390625,0.21144497394561768,-0.4054276943206787
1742766221673511000,13.801510986328125,1.6595115661621094,0.045860886573791504,-1.0467225313186646
1742766221687894300,13.815894287109375,3.4807205200195312,0.2845391035079956,-0.3136555850505829
1742766221702277600,13.830277587890626,2.463799476623535,0.1458594799041748,-0.42650139331817627
1742766221716661000,13.844660888671875,0.18045330047607422,0.12693852186203003,-0.5727288722991943
1742766221731044400,13.85904443359375,0.9006452560424805,0.015443801879882812,-0.9448987245559692
1742766221745427700,13.873427734375,-0.3336019515991211,0.2822510004043579,-0.24465155601501465
1742766221759811000,13.88781103515625,-0.8515329360961914,-0.0972052812576294,-0.44386026263237
1742766221774194400,13.9021943359375,0.5371742248535156,0.6175582408905029,-0.6323779225349426
1742766221788577800,13.916577880859375,-0.04298210144042969,0.8501205444335938,-0.6751118302345276
1742766221802961200,13.930961181640624,0.39761829376220703,0.9202873706817627,0.06728639453649521
1742766221817344500,13.945344482421875,0.20117759704589844,0.44189780950546265,-0.6091002225875854
1742766221831727600,13.9597275390625,1.5246810913085938,0.3706730008125305,-0.2865878939628601
1742766221846111200,13.974111328125,-0.4593839645385742,0.3928000330924988,-0.47999197244644165
1742766221860494300,13.988494384765625,0.7726669311523438,0.16479527950286865,0.20202672481536865
1742766221874877700,14.002877685546874,0.3049192428588867,-0.018826544284820557,-0.6077505350112915
1742766221889261000,14.017260986328125,-1.6135358810424805,0.13415378332138062,-0.4618780016899109
1742766221903644400,14.03164453125,-0.22905349731445312,-0.2556505501270294,-0.6385742425918579
1742766221918027800,14.04602783203125,-0.9197750091552734,0.48098206520080566,0.20642025768756866
1742766221932411100,14.0604111328125,-1.377009391784668,0.004424571990966797,-0.48290663957595825
1742766221946794500,14.07479443359375,1.069279670715332,0.6486414670944214,-0.5050942897796631
1742766221961177900,14.089177734375,0.44121551513671875,0.6503196954727173,-0.5204129219055176
1742766221975561200,14.103561279296875,1.3001089096069336,0.7808011770248413,-0.5678708553314209
1742766221989944600,14.117944580078126,0.08409309387207031,0.06799179315567017,-0.4474288821220398
1742766222004328000,14.132327880859375,-0.3469371795654297,0.472812294960022,0.12373430281877518
1742766222018711300,14.146711181640624,-1.7414655685424805,0.44557273387908936,-0.7313213348388672
1742766222033094700,14.1610947265625,-0.8677005767822266,0.3501555323600769,0.4422604441642761
1742766222047478000,14.17547802734375,-0.9261407852172852,-0.007538855075836182,-0.13779155910015106
1742766222061861400,14.189861328125,-3.4699034690856934,-0.11270028352737427,-0.15294264256954193
1742766222076244700,14.20424462890625,-1.8127946853637695,0.39751118421554565,-0.06072254478931427
1742766222090628000,14.218628173828124,-2.6503143310546875,0.3152430057525635,-0.027536138892173767
1742766222105011500,14.233011474609375,-2.3216166496276855,-0.5457311272621155,0.05889376997947693
1742766222119394800,14.247394775390624,0.04644012451171875,0.39315569400787354,-0.07254084944725037
1742766222133778200,14.261778076171876,-0.1819286346435547,0.030518531799316406,-0.45768558979034424
1742766222148161500,14.27616162109375,1.2736177444458008,0.3951748013496399,0.25109392404556274
1742766222162545000,14.290544921875,-0.24810028076171875,0.595387876033783,-0.32770758867263794
1742766222176928300,14.30492822265625,-0.8683071136474609,0.15131884813308716,0.20503151416778564
1742766222191311600,14.3193115234375,1.2721967697143555,0.051455795764923096,-0.4187002182006836
1742766222205695000,14.333695068359376,-0.34815311431884766,0.5041959285736084,-0.7972652912139893
1742766222220078300,14.348078369140625,-0.7821292877197266,-0.2480262815952301,0.10282842069864273
1742766222234461700,14.362461669921874,-0.7552299499511719,0.09271240234375,0.061046794056892395
1742766222248845000,14.376844970703125,-1.1270341873168945,0.1190413236618042,-0.7620608806610107
1742766222263228400,14.391228515625,-0.4251270294189453,0.3679535984992981,-0.1307348757982254
1742766222277611800,14.40561181640625,-2.832533836364746,0.12215745449066162,0.06000359356403351
1742766222291995100,14.4199951171875,-1.3041563034057617,0.5663708448410034,-0.14249397814273834
1742766222306378500,14.43437841796875,0.8463802337646484,0.2516747713088989,-0.14598028361797333
1742766222320761900,14.448761962890625,0.029815673828125,0.63148033618927,-0.2930169701576233
1742766222335145200,14.463145263671874,0.5157785415649414,0.23235487937927246,-0.47933661937713623
1742766222349528600,14.477528564453126,0.7186555862426758,0.7526153922080994,-0.06171613931655884
1742766222363912000,14.491911865234375,-1.9902071952819824,0.43964117765426636,-0.24407081305980682
1742766222378295300,14.50629541015625,-0.6226959228515625,0.27952831983566284,0.23530863225460052
1742766222392678700,14.5206787109375,-1.9140195846557617,0.05955815315246582,0.14269587397575378
1742766222407062000,14.53506201171875,-1.0860223770141602,-0.04948669672012329,0.18560193479061127
1742766222421445400,14.5494453125,-0.8453760147094727,-0.16429206728935242,-0.47567540407180786
1742766222435828700,14.563828857421875,-2.2473158836364746,-0.28831711411476135,0.9441630840301514
1742766222450212000,14.578212158203126,-1.632162094116211,0.3409164547920227,-0.46905332803726196
1742766222464595500,14.592595458984375,-0.9533205032348633,0.5237459540367126,0.643861711025238
1742766222478978800,14.606978759765624,2.1858835220336914,0.2715418338775635,-0.31801241636276245
1742766222493362200,14.621362060546875,0.030481338500976562,0.5802727341651917,-0.21026094257831573
1742766222507745500,14.63574560546875,0.19696521759033203,0.30110281705856323,-0.19762349128723145
1742766222522129000,14.65012890625,0.25499439239501953,0.4759500026702881,-0.2115262895822525
1742766222536512000,14.664511962890625,1.1844491958618164,-0.14311251044273376,-0.09033925831317902
1742766222550895600,14.6788955078125,-0.19147396087646484,0.12153244018554688,-0.240401953458786
1742766222565278700,14.69327880859375,-2.9309353828430176,0.20546990633010864,-0.45239943265914917
1742766222579662300,14.707662353515625,-0.5111627578735352,0.03932136297225952,0.472631573677063
1742766222594045400,14.72204541015625,0.4782562255859375,-0.2025981843471527,-0.4236704409122467
1742766222608429000,14.736428955078125,-1.6827049255371094,0.23730510473251343,-0.018599778413772583
1742766222622812200,14.750812255859374,-0.831782341003418,0.42787253856658936,0.3480616807937622
1742766222637195800,14.76519580078125,0.43352794647216797,0.23370230197906494,0.09147609770298004
1742766222651579000,14.779578857421875,0.9821710586547852,0.8162291049957275,-0.5049912333488464
1742766222665962200,14.793962158203126,-0.303955078125,0.8303078413009644,0.2739655375480652
1742766222680345600,14.808345703125,0.641667366027832,0.42549920082092285,-0.7103763818740845
1742766222694729000,14.82272900390625,-0.5066232681274414,0.2859179973602295,0.06619441509246826
1742766222709112300,14.8371123046875,-1.1893224716186523,-0.12669625878334045,0.17567165195941925
1742766222723495700,14.85149560546875,-3.9753470420837402,0.4298042058944702,-0.05254518985748291
1742766222737879000,14.865879150390626,-2.4211020469665527,0.08730137348175049,0.30015724897384644
1742766222752262700,14.8802626953125,-2.5262722969055176,-0.14978954195976257,0.34051820635795593
1742766222766645800,14.894645751953124,-1.4492673873901367,0.14255380630493164,-0.050245434045791626
1742766222781029000,14.909029052734375,-1.3238048553466797,0.06747925281524658,-0.1542547345161438
1742766222795412500,14.92341259765625,-3.0025534629821777,0.04313403367996216,-0.021577492356300354
1742766222809795800,14.9377958984375,-0.6118593215942383,0.28846025466918945,0.4729166626930237
1742766222824179200,14.95217919921875,0.8691797256469727,0.24727225303649902,0.151007279753685
1742766222838562600,14.9665625,-0.5482511520385742,0.5647047162055969,-0.6462457180023193
1742766222852946000,14.98094580078125,-0.30690574645996094,-0.22258058190345764,-0.35284268856048584
1742766222867329300,14.995329345703125,-0.5517444610595703,0.05651479959487915,0.4196207523345947
1742766222881712600,15.009712646484376,-0.7870149612426758,0.4916512370109558,0.1295689195394516
1742766222896096000,15.024095947265625,-2.4104137420654297,0.38502055406570435,-0.20566017925739288
1742766222910479400,15.038479248046874,0.8639669418334961,0.05947160720825195,0.16383980214595795
1742766222924862700,15.05286279296875,-0.4165477752685547,0.13459080457687378,-0.3789384961128235
1742766222939246000,15.06724609375,2.743368148803711,0.37164759635925293,-0.5456759333610535
1742766222953629400,15.08162939453125,-0.2424945831298828,-0.13521221280097961,0.3098536729812622
1742766222968012800,15.0960126953125,-3.332287311553955,0.5622093677520752,-0.49811211228370667
1742766222982396200,15.110396240234374,-3.5919337272644043,-0.15062645077705383,-0.11010292172431946
1742766222996779500,15.124779541015625,-1.5538387298583984,0.5869204998016357,0.6445361375808716
1742766223011163000,15.139162841796875,-3.1782755851745605,0.13017719984054565,-0.09851719439029694
1742766223025546200,15.153546142578126,-1.5674114227294922,-0.13479575514793396,-0.404924213886261
1742766223039929600,15.1679296875,-1.887366771697998,0.21543580293655396,0.5409296751022339
1742766223054313000,15.18231298828125,-0.7870664596557617,0.38790130615234375,0.49098747968673706
1742766223068696300,15.1966962890625,0.04006195068359375,0.10016065835952759,-0.3128679394721985
1742766223083079700,15.21107958984375,-1.5726900100708008,0.10539931058883667,0.12364234030246735
1742766223097463000,15.225463134765626,0.4559335708618164,-0.03171801567077637,-0.17237955331802368
1742766223111846400,15.239846435546875,0.857635498046875,0.4101666212081909,-0.7806862592697144
1742766223126229800,15.254229736328124,1.2601861953735352,0.44205617904663086,-0.21486349403858185
1742766223140613000,15.268613037109375,0.8411741256713867,0.029170572757720947,0.33833515644073486
1742766223154996500,15.28299658203125,-0.24933719635009766,0.8860413432121277,-0.6299656629562378
1742766223169379800,15.2973798828125,-1.7858905792236328,0.9526645541191101,-0.08915305137634277
1742766223183763200,15.31176318359375,1.0268325805664062,0.34699714183807373,-0.2271798700094223
1742766223198146600,15.326146484375,-1.2684602737426758,0.3589611053466797,-0.46909424662590027
1742766223212530000,15.340530029296875,-3.1351895332336426,0.35792434215545654,-0.2701084613800049
1742766223226913500,15.35491357421875,-1.8553109169006348,0.32358628511428833,-0.06380055844783783
1742766223241296600,15.369296630859376,-0.826904296875,-0.14875856041908264,-0.3457605540752411
1742766223255680300,15.38368017578125,-0.580845832824707,-0.27780503034591675,0.04297429323196411
1742766223270063400,15.3980634765625,-0.6008872985839844,-0.19008657336235046,0.3773975968360901
1742766223284447000,15.412447021484375,-0.3128681182861328,0.3740522861480713,-0.4110144376754761
1742766223298830000,15.426830078125,0.5188274383544922,0.3548465967178345,-0.5094482898712158
1742766223313213700,15.441213623046876,2.3884754180908203,-0.11214569211006165,-0.26451289653778076
1742766223327596800,15.4555966796875,-0.36634349822998047,0.25916367769241333,-0.07711553573608398
1742766223341980400,15.46998046875,-1.8159890174865723,1.0869245529174805,-0.30916398763656616
1742766223356363500,15.484363525390625,-0.09350395202636719,0.4723946452140808,-0.4174557030200958
1742766223370747100,15.4987470703125,0.24238872528076172,0.465070903301239,-0.24280525743961334
1742766223385130500,15.513130615234376,-0.8247957229614258,0.10468333959579468,-0.09256549179553986
1742766223399513900,15.527513916015625,-0.46184349060058594,0.6314984560012817,-0.10449272394180298
1742766223413897200,15.541897216796874,0.2719707489013672,-0.22336804866790771,0.6136391162872314
1742766223428280300,15.5562802734375,-0.5747518539428711,0.4213522672653198,-0.47161751985549927
1742766223442664000,15.570663818359375,-0.5203523635864258,-0.14306706190109253,-0.3064842224121094
1742766223457047000,15.585047119140626,-1.068838119506836,0.27245163917541504,0.19337491691112518
1742766223471430700,15.5994306640625,0.6064109802246094,0.2262468934059143,-0.20268774032592773
1742766223485814000,15.61381396484375,1.3287487030029297,-0.10722872614860535,-0.11097954213619232
1742766223500197400,15.628197265625,1.1594905853271484,0.4467512369155884,-0.7930893898010254
1742766223514580700,15.642580810546875,-1.179945945739746,0.12062591314315796,-0.48494279384613037
1742766223528964000,15.656964111328126,1.9074392318725586,0.2331131100654602,-0.06736871600151062
1742766223543347500,15.671347412109375,-0.16024112701416016,0.02364969253540039,0.37941914796829224
1742766223557730800,15.685730712890624,3.84952449798584,0.3062266707420349,-0.2860533893108368
1742766223572114200,15.7001142578125,0.1735401153564453,0.37174052000045776,-0.36875078082084656
1742766223586497500,15.71449755859375,-0.212921142578125,0.012712717056274414,0.0473739355802536
1742766223600881000,15.728880859375,0.1446094512939453,-0.046691715717315674,0.05440148711204529
1742766223615264300,15.74326416015625,1.783670425415039,0.14261972904205322,-0.08309806883335114
1742766223629647600,15.757647705078124,0.6226806640625,0.05223429203033447,-0.20347334444522858
1742766223644031000,15.772031005859375,0.32147693634033203,0.40970027446746826,-0.5712454319000244
1742766223658414300,15.786414306640625,1.057633399963379,-0.024593353271484375,-0.09736582636833191
1742766223672797700,15.800797607421876,2.494140625,0.26881372928619385,-0.6693243384361267
1742766223687181000,15.81518115234375,-2.6909165382385254,0.26577407121658325,-0.06749927997589111
1742766223701564400,15.829564453125,0.7499189376831055,0.26496726274490356,-0.2123824805021286
1742766223715947800,15.84394775390625,-0.11211204528808594,-0.1965973675251007,-0.171765998005867
1742766223730331100,15.8583310546875,2.219305992126465,-0.013656675815582275,-0.024744465947151184
1742766223744714500,15.872714599609376,2.095639228820801,0.30776965618133545,-0.7068406343460083
1742766223759097900,15.887097900390625,0.33519840240478516,0.05541640520095825,0.3016977310180664
1742766223773481200,15.901481201171874,0.7168312072753906,0.15326446294784546,-0.31189313530921936
1742766223787864600,15.915864501953125,1.4433364868164062,0.09900599718093872,-0.7271268367767334
1742766223802248000,15.930248046875,1.8965625762939453,-0.34285199642181396,-0.4293045997619629
1742766223816631300,15.94463134765625,0.6607370376586914,0.05870354175567627,-0.18637923896312714
1742766223831014700,15.9590146484375,1.9550247192382812,-0.21451279520988464,-0.29536277055740356
1742766223845398000,15.97339794921875,2.9566335678100586,-0.17803126573562622,0.22098062932491302
1742766223859781400,15.987781494140625,-2.055551052093506,0.40495675802230835,-0.12602224946022034
1742766223874164700,16.002164794921875,1.1601390838623047,0.20609277486801147,-0.0904044508934021
1742766223888548000,16.016548095703126,1.0937175750732422,-0.0851597785949707,-0.5754057168960571
1742766223902931500,16.030931396484377,2.764113426208496,-0.10542520880699158,0.10079419612884521
1742766223917314800,16.045314697265624,1.9774484634399414,-0.03817903995513916,-0.19106937944889069
1742766223931698200,16.0596982421875,-0.7892036437988281,-0.11758515238761902,-0.23840060830116272
1742766223946081500,16.07408154296875,2.0681304931640625,-0.6291090846061707,0.11189769953489304
1742766223960465000,16.08846484375,2.259958267211914,-0.024065375328063965,0.19780877232551575
1742766223974848300,16.10284814453125,0.9111948013305664,-0.2745055854320526,-0.25553324818611145
1742766223989231600,16.117231689453124,1.6116809844970703,-0.5210641026496887,0.41103285551071167
1742766224003615000,16.131614990234375,-0.011963844299316406,-0.21145570278167725,-0.39199358224868774
1742766224017998300,16.145998291015626,1.9317312240600586,0.18757855892181396,0.5442071557044983
1742766224032381700,16.160381591796874,1.3581209182739258,-0.13096264004707336,-0.04204915463924408
1742766224046765300,16.174765380859377,1.022416114807129,-0.12135365605354309,-0.1547168493270874
1742766224061148400,16.1891484375,-0.47777652740478516,-0.3079429566860199,-0.1839912086725235
1742766224075532000,16.203531982421875,0.8793039321899414,0.22423392534255981,0.059567928314208984
1742766224089915400,16.217915283203126,1.7315998077392578,0.06153225898742676,-0.25019288063049316
1742766224104298800,16.232298828125,1.7791023254394531,0.1217116117477417,0.3769282400608063
1742766224118682000,16.24668212890625,0.19648265838623047,-0.6160778999328613,-0.020731627941131592
1742766224133065500,16.2610654296875,2.0644750595092773,0.6742841005325317,-0.7779746651649475
1742766224147448800,16.27544873046875,2.6118059158325195,-0.8126576542854309,0.676321268081665
1742766224161832200,16.289832275390626,3.163473129272461,-0.06331443786621094,0.5860077738761902
1742766224176215600,16.304215576171874,-1.304337501525879,-0.16357892751693726,-0.3538828492164612
1742766224190599000,16.318598876953125,3.0629262924194336,-0.5275197625160217,0.09495416283607483
1742766224204982300,16.332982177734376,1.9939851760864258,0.17275738716125488,0.6106287837028503
1742766224219365600,16.34736572265625,-0.3698148727416992,-0.15323132276535034,0.2287379801273346
1742766224233749000,16.3617490234375,2.1937789916992188,-0.17242160439491272,-1.1717414855957031
1742766224248132400,16.37613232421875,1.0892858505249023,0.29321444034576416,0.09317056834697723
1742766224262515700,16.390515625,1.341008186340332,0.10121381282806396,0.76915442943573
1742766224276899000,16.404899169921876,3.133056640625,0.2829563021659851,-0.5682302117347717
1742766224291282400,16.419282470703124,1.3201055526733398,-0.6013433337211609,0.11963433027267456
1742766224305665800,16.433665771484375,1.9509553909301758,0.12082207202911377,-0.4462020993232727
1742766224320049200,16.448049072265626,2.662705421447754,0.14268624782562256,-0.3707285225391388
1742766224334432500,16.4624326171875,0.0892782211303711,-0.2403416633605957,0.058045655488967896
1742766224348816000,16.47681591796875,0.5010871887207031,-0.22106632590293884,-0.09897804260253906
1742766224363199200,16.49119921875,-0.8319978713989258,-0.1436644196510315,-0.32456541061401367
1742766224377582600,16.50558251953125,0.33719444274902344,-0.13655278086662292,0.23814716935157776
1742766224391966000,16.519966064453126,1.646383285522461,-0.21940475702285767,0.33523231744766235
1742766224406349300,16.534349365234377,3.4239730834960938,-0.00882267951965332,-0.8173136115074158
1742766224420732700,16.548732666015624,1.3620643615722656,0.12335282564163208,0.06305539608001709
1742766224435116000,16.563115966796875,1.103287696838379,-0.07551366090774536,0.34364813566207886
1742766224449499400,16.57749951171875,0.1940298080444336,0.0014669299125671387,0.38383418321609497
1742766224463882800,16.5918828125,1.4810247421264648,-0.26421162486076355,-0.20223402976989746
1742766224478266000,16.60626611328125,-1.1432123184204102,-0.21408680081367493,0.32795974612236023
1742766224492649700,16.620649658203124,1.031172752380371,-0.09591349959373474,-0.02587202936410904
1742766224507033000,16.635033203125,0.6492633819580078,-0.02949512004852295,0.2694457769393921
1742766224521416400,16.64941650390625,0.2718667984008789,-0.3315126895904541,0.07627466320991516
1742766224535799800,16.6637998046875,1.1479387283325195,-0.26627352833747864,-0.1214173436164856
1742766224550183200,16.67818310546875,-1.5602645874023438,0.0203971266746521,0.4066307246685028
1742766224564566500,16.69256640625,0.15720272064208984,0.08088356256484985,0.41070231795310974
1742766224578950000,16.706949951171875,2.8548192977905273,0.08200192451477051,-0.36229318380355835
1742766224593333200,16.721333251953126,-0.3007488250732422,-0.09054535627365112,0.238888218998909
1742766224607716600,16.735716552734374,-1.5595922470092773,0.18384766578674316,-0.27406132221221924
1742766224622100000,16.750099853515625,0.16318988800048828,-0.03212153911590576,-0.3186533749103546
1742766224636483300,16.7644833984375,-0.5570259094238281,-0.5117566585540771,0.47947680950164795
1742766224650866700,16.77886669921875,-2.1735281944274902,0.047376155853271484,0.7346363067626953
1742766224665250000,16.79325,-1.848464012145996,0.12109488248825073,0.22222039103507996
1742766224679633400,16.80763330078125,-0.2391948699951172,-0.6288853883743286,0.6943531036376953
1742766224694016800,16.822016845703125,-0.8439226150512695,0.22604906558990479,-0.6419936418533325
1742766224708400000,16.836400146484376,-1.3244895935058594,-0.23371759057044983,0.2819543480873108
1742766224722783500,16.850783447265623,-1.889848232269287,-0.24920406937599182,0.7576109766960144
1742766224737166800,16.865166748046875,-0.6340742111206055,-0.0702938437461853,0.1247008740901947
1742766224751550200,16.87955029296875,1.4869499206542969,0.09651821851730347,0.3007534146308899
1742766224765933600,16.89393359375,-0.511296272277832,0.08155441284179688,0.650100588798523
1742766224780317200,16.908317138671876,-1.2074089050292969,0.3849814534187317,0.2977060079574585
1742766224794700300,16.9227001953125,-2.12172269821167,0.09526306390762329,0.38293778896331787
1742766224809084000,16.937083984375,-1.8819146156311035,-0.12479561567306519,0.9135729074478149
1742766224823467300,16.95146728515625,-1.7452735900878906,-0.3669658601284027,0.5203022360801697
1742766224837850600,16.9658505859375,-4.04790735244751,0.05187124013900757,0.510912299156189
1742766224852234000,16.98023388671875,-3.0607333183288574,-0.7824206948280334,0.5835824012756348
1742766224866617300,16.994617431640624,-1.062514305114746,0.08521080017089844,0.7828887701034546
1742766224881000700,17.009000732421875,-2.006901741027832,-0.28893959522247314,0.6576482057571411
1742766224895384000,17.023384033203126,-0.5709972381591797,0.03241950273513794,0.5688530206680298
1742766224909767400,17.037767333984377,-4.076638698577881,0.2986741065979004,0.47158047556877136
1742766224924150800,17.05215087890625,-0.536463737487793,0.5951966643333435,0.29359543323516846
1742766224938534100,17.0665341796875,-0.1801290512084961,0.03505063056945801,0.7081249356269836
1742766224952917500,17.08091748046875,0.006539344787597656,0.6539506912231445,0.17324979603290558
1742766224967300900,17.09530078125,-3.357985019683838,0.4777478575706482,-0.09065629541873932
1742766224981684200,17.109684326171877,-2.925046920776367,0.3857162594795227,0.9905164241790771
1742766224996067600,17.124067626953124,-1.4669475555419922,-0.005827009677886963,-0.12542924284934998
1742766225010451000,17.138450927734375,-2.3667140007019043,-0.2963615953922272,0.9001636505126953
1742766225024834300,17.152834228515626,-1.2348995208740234,0.21408098936080933,0.04999741166830063
1742766225039217700,17.1672177734375,-3.043976306915283,0.0501636266708374,0.5587102770805359
1742766225053601000,17.18160107421875,1.860142707824707,-0.3125210702419281,0.5260624885559082
1742766225067984400,17.195984375,-1.741868019104004,0.5794041752815247,0.49376681447029114
1742766225082368000,17.210367919921875,-2.416963577270508,0.0966145396232605,0.0870579406619072
1742766225096751400,17.22475146484375,-0.698512077331543,0.4605798125267029,0.10854089260101318
1742766225111134700,17.239134765625,-1.854504108428955,0.15067625045776367,-0.017582759261131287
1742766225125518000,17.25351806640625,0.29146289825439453,0.023653686046600342,0.6112895011901855
1742766225139901400,17.2679013671875,-0.731654167175293,0.011366844177246094,-0.2623521685600281
1742766225154284800,17.282284912109375,-0.21390914916992188,0.008095026016235352,0.061149969696998596
1742766225168668200,17.296668212890626,-1.5378942489624023,-0.4826165437698364,0.3231668174266815
1742766225183051500,17.311051513671874,-0.11806106567382812,0.6347501277923584,0.3829021751880646
1742766225197435000,17.325434814453125,1.1564149856567383,-0.19936326146125793,-0.3331243395805359
1742766225211818200,17.339818359375,1.5443668365478516,0.4526369571685791,-0.5647599697113037
1742766225226201600,17.35420166015625,-0.007861137390136719,0.005254685878753662,-0.16917148232460022
1742766225240585000,17.3685849609375,0.9441595077514648,0.5894052386283875,0.2424529492855072
1742766225254968300,17.38296826171875,0.7843084335327148,0.28573399782180786,-0.4616353213787079
1742766225269351700,17.3973515625,-0.008090019226074219,0.2493278980255127,0.17599838972091675
1742766225283735000,17.411735107421876,-0.0685110092163086,0.2662663459777832,-0.6373721361160278
1742766225298118400,17.426118408203124,1.0997257232666016,-0.017198264598846436,0.30412131547927856
1742766225312502000,17.440501953125,2.067354202270508,-0.22736439108848572,-0.13125306367874146
1742766225326885400,17.454885498046874,1.1195831298828125,-0.11906248331069946,-0.03662542998790741
1742766225341268700,17.469268798828125,-1.089890480041504,0.09715139865875244,-0.44866707921028137
1742766225355652000,17.483652099609376,1.3636236190795898,-0.0922093391418457,-0.07253575325012207
1742766225370035500,17.498035400390624,1.807938575744629,0.0013031363487243652,-0.4644821286201477
1742766225384418800,17.512418701171875,2.472959518432617,-0.09057319164276123,-0.31840986013412476
1742766225398802200,17.52680224609375,1.1071624755859375,-0.2820698618888855,0.27198606729507446
1742766225413185500,17.541185546875,0.9295005798339844,0.13411486148834229,-0.5127977728843689
1742766225427569000,17.55556884765625,1.7021055221557617,-0.3466618061065674,-0.30652129650115967
1742766225441952300,17.5699521484375,0.6802864074707031,-0.005926072597503662,0.5369603633880615
1742766225456335600,17.584335693359375,0.06376361846923828,-0.5949991941452026,-0.16899798810482025
1742766225470719000,17.598718994140626,-0.5132112503051758,-0.427715003490448,0.18105486035346985
1742766225485102300,17.613102294921877,-0.5985040664672852,0.5183961391448975,-0.0892489105463028
1742766225499485700,17.627485595703124,-0.006222724914550781,-0.7358536124229431,0.45418083667755127
1742766225513869000,17.641869140625,-0.11224555969238281,0.12921059131622314,0.43746379017829895
1742766225528252400,17.65625244140625,0.3798942565917969,-0.42800235748291016,-0.6140092611312866
1742766225542636000,17.670635986328126,3.319368362426758,-0.38955074548721313,-0.4361042082309723
1742766225557019400,17.685019287109377,3.0045347213745117,-0.08155804872512817,0.0035187676548957825
1742766225571402800,17.69940283203125,-0.07946491241455078,-0.6688836216926575,0.45903101563453674
1742766225585786000,17.7137861328125,2.4851856231689453,-0.1697254478931427,-0.23842713236808777
1742766225600169500,17.72816943359375,-1.8563523292541504,0.24254059791564941,-0.3297596871852875
1742766225614552800,17.742552734375,2.1578235626220703,-0.6482194662094116,0.10670939832925797
1742766225628936200,17.756936279296873,0.5239667892456055,-0.20514842867851257,0.28918614983558655
1742766225643319600,17.771319580078124,-0.08870506286621094,-0.3011762201786041,0.020084291696548462
1742766225657703000,17.785702880859375,1.4363393783569336,-0.0012458562850952148,-0.2261752188205719
1742766225672086300,17.800086181640626,-0.22735023498535156,-0.36010289192199707,-0.20075306296348572
1742766225686469600,17.8144697265625,0.6111936569213867,-0.5330737829208374,0.4926955997943878
1742766225700853000,17.82885302734375,1.679997444152832,-0.6007721424102783,-0.2702523469924927
1742766225715236600,17.843236572265624,1.3775177001953125,-0.120699942111969,-0.19941382110118866
1742766225729619700,17.85761962890625,0.8950414657592773,-0.2502237856388092,0.15161707997322083
