time,seconds_elapsed,z,y,x
1742766207974608000,0.10260791015625,7.555337429046631,6.120840549468994,-0.9248259663581848
1742766207977005000,0.105005126953125,7.627720355987549,6.09332275390625,-0.9206385016441345
1742766207979402200,0.10740234375,7.737790107727051,6.094519138336182,-0.9397810697555542
1742766207981799400,0.10979931640625,7.824530124664307,6.057430744171143,-0.9308080077171326
1742766207984196900,0.11219677734375,7.925626754760742,6.020341873168945,-0.9314061999320984
1742766207986594000,0.114593994140625,8.002197265625,6.007181167602539,-0.9026923179626465
1742766207988991200,0.1169912109375,8.065009117126465,5.9647088050842285,-0.8841479420661926
1742766207991388400,0.119388427734375,8.170890808105469,5.913861274719238,-0.8703892230987549
1742766207993785600,0.12178564453125,8.23848819732666,5.890531063079834,-0.8327022790908813
1742766207996182800,0.124182861328125,8.286344528198242,5.85284423828125,-0.8093722462654114
1742766207998580000,0.126580078125,8.34018325805664,5.800800323486328,-0.7668996453285217
1742766208000977200,0.12897705078125,8.388039588928223,5.772684574127197,-0.7286145091056824
1742766208003374300,0.131374267578125,8.407780647277832,5.749354839324951,-0.719641387462616
1742766208005771500,0.133771484375,8.427521705627441,5.715855121612549,-0.6675975322723389
1742766208008169000,0.1361689453125,8.432905197143555,5.682953834533691,-0.6867401003837585
1742766208010566100,0.138566162109375,8.428717613220215,5.6446685791015625,-0.672383189201355
1742766208012963300,0.14096337890625,8.423932075500488,5.6207404136657715,-0.6586244106292725
1742766208015360500,0.143360595703125,8.434102058410645,5.597410202026367,-0.649053156375885
1742766208017757700,0.1457578125,8.434102058410645,5.5591254234313965,-0.6538388133049011
1742766208020155000,0.14815478515625,8.405387878417969,5.535196781158447,-0.6634100675582886
1742766208022552000,0.150552001953125,8.362317085266113,5.5345988273620605,-0.6921239495277405
1742766208024949200,0.15294921875,8.347960472106934,5.525027275085449,-0.7112665176391602
1742766208027346700,0.1553466796875,8.333602905273438,5.544169902801514,-0.7202396392822266
1742766208029743900,0.157743896484375,8.300103187561035,5.5345988273620605,-0.7250252366065979
1742766208032141000,0.16014111328125,8.285746574401855,5.529214859008789,-0.7202396392822266
1742766208034538200,0.162538330078125,8.276175498962402,5.529214859008789,-0.7202396392822266
1742766208036935400,0.164935302734375,8.26660442352295,5.534000396728516,-0.7058826684951782
1742766208039332600,0.16733251953125,8.237292289733887,5.552545070648193,-0.7058826684951782
1742766208041729800,0.169729736328125,8.217551231384277,5.595017433166504,-0.6867401003837585
1742766208044127000,0.172126953125,8.160123825073242,5.594419479370117,-0.6628118753433228
1742766208046524400,0.1745244140625,8.131409645080566,5.627320766448975,-0.6622136831283569
1742766208048921600,0.176921630859375,8.126026153564453,5.6554365158081055,-0.666999340057373
1742766208051318800,0.17931884765625,8.140382766723633,5.675177097320557,-0.6861419081687927
1742766208053716000,0.181716064453125,8.134998321533203,5.68893575668335,-0.6957131624221802
1742766208056113200,0.184113037109375,8.1493558883667,5.694319725036621,-0.7381857633590698
1742766208058510300,0.18651025390625,8.158926963806152,5.694319725036621,-0.7621139883995056
1742766208060907500,0.188907470703125,8.154141426086426,5.690132141113281,-0.8099704384803772
1742766208063304700,0.1913046875,8.14516830444336,5.66620397567749,-0.8099704384803772
1742766208065702000,0.193701904296875,8.164310455322266,5.633302688598633,-0.8530412912368774
1742766208068099000,0.19609912109375,8.160123825073242,5.614160060882568,-0.8769695162773132
1742766208070496500,0.19849658203125,8.184649467468262,5.581258773803711,-0.8769695162773132
1742766208072893700,0.200893798828125,8.227720260620117,5.55314302444458,-0.8721838593482971
1742766208075291000,0.203290771484375,8.26660442352295,5.515456199645996,-0.8536394834518433
1742766208077688000,0.20568798828125,8.295317649841309,5.492125988006592,-0.8255237936973572
1742766208080085200,0.208085205078125,8.267202377319336,5.458626747131348,-0.8255237936973572
1742766208082482400,0.210482421875,8.291728973388672,5.406582832336426,-0.8069794178009033
1742766208084879600,0.212879638671875,8.258827209472656,5.377869129180908,-0.802193820476532
1742766208087276800,0.21527685546875,8.249256134033203,5.349154949188232,-0.7926225066184998
1742766208089674200,0.21767431640625,8.187641143798828,5.310271739959717,-0.7974081635475159
1742766208092071400,0.220071533203125,8.168498039245605,5.3007001876831055,-0.8117650747299194
1742766208094468600,0.222468505859375,8.134998321533203,5.286343574523926,-0.8500502705574036
1742766208096865800,0.22486572265625,8.12542724609375,5.267200946807861,-0.859621524810791
1742766208099263000,0.227262939453125,8.126026153564453,5.2390851974487305,-0.8979067206382751
1742766208101660200,0.22966015625,8.13081169128418,5.224728107452393,-0.9260223507881165
1742766208104057300,0.232057373046875,8.13081169128418,5.229514122009277,-0.9499505758285522
1742766208106454500,0.23445458984375,8.164909362792969,5.2013983726501465,-0.9643075466156006
1742766208108852000,0.23685205078125,8.198408126831055,5.197210788726807,-0.9882357716560364
1742766208111249200,0.239249267578125,8.203194618225098,5.173880577087402,-0.9888339638710022
1742766208113646300,0.241646240234375,8.231907844543457,5.169095039367676,-0.9984052777290344
1742766208116043500,0.24404345703125,8.25105094909668,5.183452129364014,-0.9601200819015503
1742766208118440700,0.246440673828125,8.24147891998291,5.216353416442871,-0.9218349456787109
1742766208120838000,0.248837890625,8.240880966186523,5.259424209594727,-0.9266205430030823
1742766208123235000,0.251235107421875,8.264211654663086,5.292923450469971,-0.9451649188995361
1742766208125632300,0.25363232421875,8.292326927185059,5.335994720458984,-0.997208833694458
1742766208128029400,0.256029541015625,8.339585304260254,5.379663467407227,-1.0067801475524902
1742766208130426600,0.258426513671875,8.391629219055176,5.43709135055542,-1.054038405418396
1742766208132824000,0.260823974609375,8.420941352844238,5.447260856628418,-1.0683952569961548
1742766208135221200,0.26322119140625,8.420941352844238,5.475376605987549,-1.073180913925171
1742766208137618400,0.265618408203125,8.420941352844238,5.470590591430664,-1.0683952569961548
1742766208140015600,0.268015625,8.449654579162598,5.480760097503662,-1.073180913925171
1742766208142412800,0.270412841796875,8.440083503723145,5.480760097503662,-1.0683952569961548
1742766208144810000,0.27281005859375,8.425726890563965,5.442475318908691,-1.0498509407043457
1742766208147207200,0.275207275390625,8.34437084197998,5.408377170562744,-1.054038405418396
1742766208149604400,0.277604248046875,8.263014793395996,5.37906551361084,-1.077966570854187
1742766208152001800,0.280001708984375,8.153543472290039,5.344369411468506,-1.0923235416412354
1742766208154399000,0.28239892578125,8.086544036865234,5.3246283531188965,-1.0923235416412354
1742766208156796200,0.284796142578125,8.01057243347168,5.295316696166992,-1.0971091985702515
1742766208159193300,0.287193359375,7.919644832611084,5.289932727813721,-1.0923235416412354
1742766208161590500,0.289590576171875,7.8287177085876465,5.2839508056640625,-1.067797064781189
1742766208163987700,0.29198779296875,7.741977691650391,5.2971110343933105,-1.043868899345398
1742766208166385000,0.294385009765625,7.660621643066406,5.3007001876831055,-0.981655478477478
1742766208168782000,0.296781982421875,7.578667640686035,5.32821798324585,-0.924227774143219
1742766208171179500,0.299179443359375,7.53559684753418,5.3557353019714355,-0.867398202419281
1742766208173576700,0.30157666015625,7.51585578918457,5.388636589050293,-0.8386843204498291
1742766208175974000,0.303973876953125,7.51585578918457,5.407779216766357,-0.8003991842269897
1742766208178371000,0.30637109375,7.548757076263428,5.440680503845215,-0.7668996453285217
1742766208180768300,0.308768310546875,7.572685241699219,5.469394207000732,-0.7334001660346985
1742766208183165400,0.31116552734375,7.610372543334961,5.498706340789795,-0.7286145091056824
1742766208185562600,0.313562744140625,7.658228874206543,5.508277893066406,-0.6999006271362305
1742766208187959800,0.315959716796875,7.710870742797852,5.537590026855469,-0.6951149702072144
1742766208190357000,0.31835693359375,7.768298625946045,5.556732177734375,-0.666999340057373
1742766208192754200,0.320754150390625,7.863413333892822,5.566901683807373,-0.6239284873008728
1742766208195151600,0.323151611328125,7.93998384475708,5.6153564453125,-0.6095715761184692
1742766208197548800,0.325548828125,8.044670104980469,5.635695457458496,-0.6005984544754028
1742766208199946000,0.327946044921875,8.116454124450684,5.660222053527832,-0.6005984544754028
1742766208202343200,0.33034326171875,8.193024635314941,5.68893575668335,-0.5814558863639832
1742766208204740400,0.332740234375,8.23549747467041,5.7134623527526855,-0.5473581552505493
1742766208207137500,0.335137451171875,8.278568267822266,5.727818965911865,-0.5330012440681458
1742766208209534700,0.33753466796875,8.331210136413574,5.747560024261475,-0.5330012440681458
1742766208211932000,0.339931884765625,8.383852005004883,5.743372440338135,-0.519242525100708
1742766208214329000,0.3423291015625,8.431708335876465,5.7720866203308105,-0.5144568681716919
1742766208216726500,0.3447265625,8.49452018737793,5.767899036407471,-0.5048855543136597
1742766208219123700,0.347123779296875,8.503493309020996,5.801398277282715,-0.4713860750198364
1742766208221521000,0.34952099609375,8.497511863708496,5.904888153076172,-0.3044866919517517
1742766208223918000,0.35191796875,8.47298526763916,5.975476264953613,-0.18484555184841156
1742766208226315300,0.354315185546875,8.4771728515625,5.998806476593018,-0.12801600992679596
1742766208228712400,0.35671240234375,8.443673133850098,6.002993583679199,-0.06580262631177902
1742766208231109600,0.359109619140625,8.468199729919434,5.9647088050842285,0.005383851006627083
1742766208233506800,0.3615068359375,8.45444107055664,5.916851997375488,0.0526420995593071
1742766208235904300,0.363904296875,8.446065902709961,5.821737289428711,0.06640082597732544
1742766208238301400,0.366301513671875,8.427521705627441,5.7649078369140625,0.03290131315588951
1742766208240698600,0.36869873046875,8.437690734863281,5.68893575668335,0.008973085321485996
1742766208243095800,0.371095703125,8.419744491577148,5.612963676452637,-0.029910283163189888
1742766208245493000,0.373492919921875,8.376673698425293,5.536991596221924,-0.09690931439399719
1742766208247890200,0.37589013671875,8.3300142288208,5.4556355476379395,-0.12083754688501358
1742766208250287400,0.378287353515625,8.258827209472656,5.3694939613342285,-0.13998012244701385
1742766208252684500,0.3806845703125,8.206783294677734,5.302495002746582,-0.1495514214038849
1742766208255081700,0.383081787109375,8.131409645080566,5.2354960441589355,-0.18783657252788544
1742766208257479200,0.385479248046875,8.069195747375488,5.2253265380859375,-0.21655045449733734
1742766208259876400,0.38787646484375,7.997411251068115,5.210371494293213,-0.22133609652519226
1742766208262273500,0.3902734375,7.925626754760742,5.200201988220215,-0.2350948303937912
1742766208264670700,0.392670654296875,7.844270706176758,5.20379114151001,-0.2111666053533554
1742766208267068000,0.39506787109375,7.777271747589111,5.212764263153076,-0.17766708135604858
1742766208269465000,0.397465087890625,7.680362701416016,5.263611793518066,-0.13938191533088684
1742766208271862300,0.3998623046875,7.608577728271484,5.310271739959717,-0.09631111472845078
1742766208274259500,0.402259521484375,7.578667640686035,5.371288776397705,-0.0526420995593071
1742766208276656600,0.40465673828125,7.51585578918457,5.43709135055542,-0.009571290574967861
1742766208279054000,0.40705419921875,7.485945701599121,5.517251014709473,0.02392822690308094
1742766208281451300,0.409451171875,7.461419105529785,5.5692949295043945,0.03888336941599846
1742766208283848400,0.411848388671875,7.4506516456604,5.6685967445373535,0.06759724020957947
1742766208286245600,0.41424560546875,7.459624767303467,5.73978328704834,0.0729810893535614
1742766208288642800,0.416642822265625,7.444669246673584,5.801398277282715,0.05922235921025276
1742766208291040000,0.4190400390625,7.448856830596924,5.854040622711182,0.04007977992296219
1742766208293437200,0.421437255859375,7.481758117675781,5.916254043579102,0.01196411345154047
1742766208295834400,0.42383447265625,7.500302791595459,5.935396671295166,0.0023928226437419653
1742766208298231800,0.426231689453125,7.572087287902832,5.955137252807617,-0.04546362906694412
1742766208300629000,0.42862890625,7.581658363342285,5.970092296600342,-0.05922235921025276
1742766208303026200,0.431026123046875,7.624131202697754,6.003592014312744,-0.10229317098855972
1742766208305423400,0.43342333984375,7.705487251281738,6.009573936462402,-0.15912270545959473
1742766208307820500,0.435820556640625,7.791628837585449,5.9916276931762695,-0.2309073805809021
1742766208310217700,0.4382177734375,7.844270706176758,5.997610092163086,-0.26919254660606384
1742766208312615000,0.440614990234375,7.945367813110352,5.974878311157227,-0.29312077164649963
1742766208315012000,0.44301220703125,8.041678428649902,5.909673690795898,-0.3367897868156433
1742766208317409300,0.4454091796875,8.133204460144043,5.877370834350586,-0.3655036687850952
1742766208319806700,0.447806640625,8.24387264251709,5.821737289428711,-0.39960137009620667
1742766208322204000,0.450203857421875,8.344968795776367,5.79481840133667,-0.44745782017707825
1742766208324601000,0.45260107421875,8.432307243347168,5.757729530334473,-0.5144568681716919
1742766208326998300,0.454998291015625,8.537590980529785,5.726024627685547,-0.5575276613235474
1742766208329395500,0.4573955078125,8.61475944519043,5.6895341873168945,-0.6299105882644653
1742766208331792600,0.459792724609375,8.638688087463379,5.67039155960083,-0.6442674994468689
1742766208334189800,0.46218994140625,8.635098457336426,5.608776092529297,-0.6687939167022705
1742766208336587000,0.4645869140625,8.620741844177246,5.5758748054504395,-0.6879364848136902
1742766208338984200,0.466984130859375,8.640482902526855,5.556732177734375,-0.6735795736312866
1742766208341381600,0.469381591796875,8.630910873413086,5.518447399139404,-0.6550351977348328
1742766208343778800,0.47177880859375,8.60758113861084,5.484947681427002,-0.6454638838768005
1742766208346176000,0.474176025390625,8.588438987731934,5.470590591430664,-0.6215356588363647
1742766208348573200,0.4765732421875,8.579465866088867,5.446662425994873,-0.6358926296234131
1742766208350970400,0.478970458984375,8.58903694152832,5.4179487228393555,-0.6125625967979431
1742766208353367600,0.481367431640625,8.59920597076416,5.37069034576416,-0.6029912829399109
1742766208355764700,0.4837646484375,8.595019340515137,5.337789058685303,-0.6125625967979431
1742766208358162000,0.486161865234375,8.595019340515137,5.323431968688965,-0.584446907043457
1742766208360559400,0.488559326171875,8.619544982910156,5.289932727813721,-0.584446907043457
1742766208362956500,0.49095654296875,8.609973907470703,5.270790100097656,-0.5659025311470032
1742766208365353700,0.493353759765625,8.595617294311523,5.256433010101318,-0.5706881880760193
1742766208367751000,0.4957509765625,8.615358352661133,5.2283172607421875,-0.6089733839035034
1742766208370148000,0.498148193359375,8.639286041259766,5.2145586013793945,-0.6370890140533447
1742766208372545300,0.500545166015625,8.639883995056152,5.1906304359436035,-0.6329016089439392
1742766208374942500,0.5029423828125,8.673383712768555,5.163113117218018,-0.6616154313087463
1742766208377339600,0.505339599609375,8.71645450592041,5.163711071014404,-0.6711867451667786
1742766208379736800,0.50773681640625,8.764909744262695,5.140381336212158,-0.7238288521766663
1742766208382134300,0.51013427734375,8.827122688293457,5.117649555206299,-0.7334001660346985
1742766208384531500,0.512531494140625,8.880363464355469,5.099104881286621,-0.7381857633590698
1742766208386928600,0.5149287109375,8.947959899902344,5.057230472564697,-0.7292127013206482
1742766208389325800,0.517325927734375,8.977272033691406,5.004588603973389,-0.7579265832901001
1742766208391723000,0.519722900390625,9.030512809753418,4.957928657531738,-0.7824530005455017
1742766208394120200,0.5221201171875,9.073583602905273,4.929812908172607,-0.8207381963729858
1742766208396517400,0.524517333984375,9.09811019897461,4.901697158813477,-0.8590233325958252
1742766208398914600,0.52691455078125,9.117252349853516,4.887938499450684,-0.882951557636261
1742766208401311700,0.529311767578125,9.151350021362305,4.859822750091553,-0.8925228714942932
1742766208403709200,0.531709228515625,9.146564483642578,4.8502516746521,-0.8781659007072449
1742766208406106400,0.5341064453125,9.141778945922852,4.835894584655762,-0.8781659007072449
1742766208408503600,0.536503662109375,9.117850303649902,4.816751956939697,-0.882951557636261
1742766208410900700,0.538900634765625,9.123234748840332,4.797609329223633,-0.8787640929222107
1742766208413298000,0.5412978515625,9.099306106567383,4.778466701507568,-0.8739784955978394
1742766208415695000,0.543695068359375,9.119047164916992,4.7503509521484375,-0.859621524810791
1742766208418092300,0.54609228515625,9.066405296325684,4.72582483291626,-0.8548358678817749
1742766208420489500,0.548489501953125,9.047860145568848,4.692325115203857,-0.8506484627723694
1742766208422887000,0.550886962890625,8.995218276977539,4.682155609130859,-0.8410771489143372
1742766208425284000,0.5532841796875,8.96650505065918,4.648656368255615,-0.836291491985321
1742766208427681300,0.555681396484375,8.890532493591309,4.633700847625732,-0.8548358678817749
1742766208430078500,0.558078369140625,8.794221878051758,4.6372904777526855,-0.8787640929222107
1742766208432475600,0.5604755859375,8.679964065551758,4.593621253967285,-0.9020941257476807
1742766208434872800,0.562872802734375,8.612964630126953,4.569094657897949,-0.9068797826766968
1742766208437270000,0.56527001953125,8.541778564453125,4.515854358673096,-0.8739784955978394
1742766208439667200,0.567667236328125,8.489734649658203,4.481756687164307,-0.8356932997703552
1742766208442064400,0.570064453125,8.383852005004883,4.466801643371582,-0.8356932997703552
1742766208444461800,0.5724619140625,8.278568267822266,4.446462631225586,-0.8261220455169678
1742766208446859000,0.57485888671875,8.187641143798828,4.464408874511719,-0.8446664214134216
1742766208449256200,0.577256103515625,8.12542724609375,4.473381996154785,-0.8542376756668091
1742766208451653400,0.5796533203125,8.0291166305542,4.505684852600098,-0.8679963946342468
1742766208454050600,0.582050537109375,7.9280195236206055,4.537988185882568,-0.9056833982467651
1742766208456447700,0.58444775390625,7.850851058959961,4.565505504608154,-0.9098708033561707
1742766208458845000,0.586844970703125,7.807182312011719,4.636692047119141,-0.9475577473640442
1742766208461242000,0.5892421875,7.744370460510254,4.679164886474609,-0.99481600522995
1742766208463639300,0.591639404296875,7.686344623565674,4.744967460632324,-1.046859860420227
1742766208466036700,0.59403662109375,7.690532207489014,4.797609329223633,-1.0516455173492432
1742766208468434000,0.596433837890625,7.728219032287598,4.831109046936035,-1.036690354347229
1742766208470831000,0.5988310546875,7.790432453155518,4.84606409072876,-1.042074203491211
1742766208473228300,0.601228271484375,7.909475326538086,4.880161762237549,-1.0085747241973877
1742766208475625500,0.60362548828125,8.033902168273926,4.910071849822998,-1.0133603811264038
1742766208478022700,0.606022705078125,8.134400367736816,4.930410861968994,-1.01814603805542
1742766208480419800,0.608419921875,8.25404167175293,4.95074987411499,-1.0660024881362915
1742766208482817000,0.610817138671875,8.397610664367676,4.933402061462402,-1.0947163105010986
1742766208485214500,0.61321435546875,8.517850875854492,4.929812908172607,-1.1001001596450806
1742766208487611600,0.615611572265625,8.638090133666992,4.917250633239746,-1.119242787361145
1742766208490008800,0.6180087890625,8.74337387084961,4.918447017669678,-1.1383854150772095
1742766208492406000,0.620406005859375,8.810373306274414,4.890929698944092,-1.1676974296569824
1742766208494803200,0.62280322265625,8.882756233215332,4.877170562744141,-1.1772687435150146
1742766208497200400,0.625200439453125,8.921041488647461,4.858626365661621,-1.1820544004440308
1742766208499597600,0.62759765625,8.926424980163574,4.806582450866699,-1.1874382495880127
1742766208501994800,0.629994873046875,8.903095245361328,4.787439823150635,-1.2065808773040771
1742766208504392000,0.632391845703125,8.874381065368652,4.763511657714844,-1.2113664150238037
1742766208506789400,0.634789306640625,8.845666885375977,4.744369029998779,-1.2113664150238037
1742766208509186600,0.6371865234375,8.812167167663574,4.729413986206055,-1.2346965074539185
1742766208511583700,0.639583740234375,8.774480819702148,4.686343193054199,-1.2305090427398682
1742766208513981000,0.64198095703125,8.698508262634277,4.661816596984863,-1.1874382495880127
1742766208516378000,0.644378173828125,8.62193775177002,4.627718925476074,-1.1635099649429321
1742766208518775300,0.646775390625,8.560322761535645,4.603192329406738,-1.1210373640060425
1742766208521172500,0.64917236328125,8.459226608276367,4.6163530349731445,-1.1156535148620605
1742766208523569700,0.651569580078125,8.373085021972656,4.576871395111084,-1.0827522277832031
1742766208525967000,0.653967041015625,8.286943435668945,4.585246562957764,-1.0253244638442993
1742766208528364300,0.6563642578125,8.200202941894531,4.593621253967285,-1.0151549577713013
1742766208530761500,0.658761474609375,8.09970474243164,4.606781959533691,-0.9768698215484619
1742766208533158700,0.66115869140625,8.066205024719238,4.620540618896484,-0.9625129103660583
1742766208535555800,0.663555908203125,8.03210735321045,4.66779899597168,-0.9529415965080261
1742766208537953000,0.665953125,7.964509963989258,4.700101852416992,-0.9379864931106567
1742766208540350200,0.66835009765625,7.930412292480469,4.752145767211914,-0.9188438653945923
1742766208542747400,0.670747314453125,7.891529083251953,4.794020175933838,-0.9044869542121887
1742766208545144800,0.673144775390625,7.891529083251953,4.8227338790893555,-0.8991031050682068
1742766208547542000,0.6755419921875,7.905886173248291,4.832305431365967,-0.9134600162506104
1742766208549939200,0.677939208984375,7.9244303703308105,4.870590686798096,-0.9038887619972229
1742766208552336400,0.68033642578125,7.947760581970215,4.90408992767334,-0.908674418926239
1742766208554733600,0.682733642578125,7.995616912841797,4.914259433746338,-0.9326026439666748
1742766208557130800,0.685130859375,8.052446365356445,4.966901779174805,-0.9607182741165161
1742766208559528000,0.68752783203125,8.11944580078125,4.986642360687256,-0.9559326171875
1742766208561925000,0.689925048828125,8.157132148742676,5.011168956756592,-0.9607182741165161
1742766208564322300,0.692322265625,8.219346046447754,5.016552448272705,-0.9463613629341125
1742766208566719500,0.694719482421875,8.277371406555176,5.007579803466797,-0.9517452120780945
1742766208569117000,0.697116943359375,8.325227737426758,5.003392219543457,-0.9421738982200623
1742766208571514000,0.69951416015625,8.411369323730469,4.994419097900391,-0.9421738982200623
1742766208573911300,0.701911376953125,8.4502534866333,4.975874900817871,-0.9523434042930603
1742766208576308500,0.70430859375,8.483752250671387,4.976472854614258,-0.97148597240448
1742766208578705700,0.70670556640625,8.49870777130127,4.948357105255127,-0.9858429431915283
1742766208581102800,0.709102783203125,8.49870777130127,4.924428939819336,-1.0241280794143677
1742766208583500000,0.7115,8.508278846740723,4.934598445892334,-1.0426725149154663
1742766208585897200,0.713897216796875,8.48435115814209,4.924428939819336,-1.052243709564209
1742766208588294700,0.716294677734375,8.461020469665527,4.910071849822998,-1.0241280794143677
1742766208590691800,0.71869189453125,8.432905197143555,4.862215518951416,-1.0001999139785767
1742766208593089000,0.721089111328125,8.417949676513672,4.833501815795898,-0.9672985672950745
1742766208595486200,0.723486328125,8.404191017150879,4.800002098083496,-0.9290133714675903
1742766208597883400,0.72588330078125,8.419744491577148,4.737788677215576,-0.8865407705307007
1742766208600280600,0.728280517578125,8.380861282348633,4.718646049499512,-0.8392825126647949
1742766208602677800,0.730677734375,8.35274600982666,4.679762840270996,-0.8057830333709717
1742766208605075000,0.733074951171875,8.314460754394531,4.674378871917725,-0.7345965504646301
1742766208607472400,0.735472412109375,8.271987915039062,4.654638290405273,-0.7010970115661621
1742766208609869600,0.73786962890625,8.22413158416748,4.6301116943359375,-0.6771687865257263
1742766208612266800,0.740266845703125,8.223533630371094,4.668396949768066,-0.6251249313354492
1742766208614664000,0.742663818359375,8.170890808105469,4.676771640777588,-0.605384111404419
1742766208617061000,0.74506103515625,8.184649467468262,4.719842433929443,-0.605384111404419
1742766208619458300,0.747458251953125,8.174480438232422,4.7958149909973145,-0.666999340057373
1742766208621855500,0.74985546875,8.207381248474121,4.8436713218688965,-0.666999340057373
1742766208624252700,0.752252685546875,8.201997756958008,4.886742115020752,-0.714257538318634
1742766208626649900,0.75464990234375,8.187042236328125,4.924428939819336,-0.7328019142150879
1742766208629047000,0.757047119140625,8.152944564819336,4.977071285247803,-0.8087740540504456
1742766208631444500,0.759444580078125,8.157731056213379,4.996213912963867,-0.8464609980583191
1742766208633841700,0.761841552734375,8.118846893310547,5.038686275482178,-0.8793623447418213
1742766208636238800,0.76423876953125,8.13798999786377,5.048257350921631,-0.8841479420661926
1742766208638636000,0.766635986328125,8.156534194946289,5.072783946990967,-0.8793623447418213
1742766208641033200,0.769033203125,8.151748657226562,5.087141036987305,-0.8841479420661926
1742766208643430400,0.771430419921875,8.170890808105469,5.111069202423096,-0.8697910308837891
1742766208645827600,0.77382763671875,8.21874713897705,5.111667156219482,-0.865005373954773
1742766208648224800,0.776224853515625,8.270791053771973,5.12602424621582,-0.8177471160888672
1742766208650622200,0.778622314453125,8.309076309204102,5.131408214569092,-0.8129615187644958
1742766208653019400,0.781019287109375,8.376673698425293,5.127220630645752,-0.7896314859390259
1742766208655416600,0.78341650390625,8.400602340698242,5.122435092926025,-0.7992027401924133
1742766208657813800,0.785813720703125,8.425128936767578,5.113461971282959,-0.8087740540504456
1742766208660211000,0.7882109375,8.449056625366211,5.0949177742004395,-0.8279166221618652
1742766208662608100,0.790608154296875,8.444869041442871,5.075775146484375,-0.851844847202301
1742766208665005300,0.79300537109375,8.444869041442871,5.062016487121582,-0.8847461938858032
1742766208667402500,0.795402587890625,8.444869041442871,5.062016487121582,-0.8991031050682068
1742766208669800000,0.797800048828125,8.410771369934082,5.066203594207764,-0.8895317912101746
1742766208672197000,0.800197021484375,8.420941352844238,5.047060966491699,-0.9182456731796265
1742766208674594300,0.80259423828125,8.45444107055664,5.037489891052246,-0.885344386100769
1742766208676991500,0.804991455078125,8.473583221435547,5.047060966491699,-0.8374879360198975
1742766208679388700,0.807388671875,8.521439552307129,5.071587562561035,-0.7806583642959595
1742766208681785900,0.809785888671875,8.559724807739258,5.0907301902771,-0.7806583642959595
1742766208684183000,0.81218310546875,8.598010063171387,5.081757068634033,-0.771087110042572
1742766208686580200,0.814580322265625,8.631509780883789,5.072783946990967,-0.7663014531135559
1742766208688977400,0.816977294921875,8.679366111755371,5.073382377624512,-0.7758727669715881
1742766208691374600,0.81937451171875,8.73200798034668,5.064409255981445,-0.7806583642959595
1742766208693772000,0.82177197265625,8.813364028930664,5.088935375213623,-0.7902296781539917
1742766208696169200,0.824169189453125,8.894720077514648,5.109274387359619,-0.8045865893363953
1742766208698566400,0.82656640625,8.922835350036621,5.1427741050720215,-0.8045865893363953
1742766208700963600,0.828963623046875,8.917451858520508,5.175675392150879,-0.7950153350830078
1742766208703360800,0.83136083984375,8.898308753967285,5.194219589233398,-0.7280163168907166
1742766208705758000,0.833758056640625,8.903095245361328,5.189434051513672,-0.6807580590248108
1742766208708155100,0.836155029296875,8.883952140808105,5.207978248596191,-0.6281159520149231
1742766208710552300,0.83855224609375,8.850452423095703,5.18823766708374,-0.5665007829666138
1742766208712949800,0.84094970703125,8.783453941345215,5.182255744934082,-0.5228317379951477
1742766208715347000,0.843346923828125,8.71226692199707,5.124229907989502,-0.48035913705825806
1742766208717744000,0.845744140625,8.650651931762695,5.114060401916504,-0.4181457459926605
1742766208720141300,0.848141357421875,8.578866958618164,5.084748268127441,-0.37088751792907715
1742766208722538500,0.85053857421875,8.50708293914795,5.093122959136963,-0.3278166949748993
1742766208724935700,0.852935791015625,8.401200294494629,5.06799840927124,-0.2799602448940277
1742766208727332900,0.855332763671875,8.286943435668945,5.047060966491699,-0.23688943684101105
1742766208729730000,0.85772998046875,8.21994400024414,5.041079044342041,-0.19381862878799438
1742766208732127500,0.86012744140625,8.114660263061523,5.015954494476318,-0.12263216078281403
1742766208734524700,0.862524658203125,8.062017440795898,5.015356063842773,-0.0891326442360878
1742766208736921900,0.864921875,8.043473243713379,4.972285270690918,-0.06999006122350693
1742766208739319000,0.867319091796875,7.99083137512207,4.976472854614258,-0.05563312768936157
1742766208741716200,0.86971630859375,7.956733703613281,4.990231513977051,-0.05563312768936157
1742766208744113400,0.872113525390625,7.923233985900879,4.994419097900391,-0.08434699475765228
1742766208746510600,0.874510498046875,7.932805061340332,4.975874900817871,-0.11724831163883209
1742766208748907800,0.87690771484375,7.9860453605651855,4.971687316894531,-0.15553347766399384
1742766208751305000,0.879304931640625,8.0291166305542,4.948955535888672,-0.1986042857170105
1742766208753702400,0.881702392578125,8.066802978515625,4.983053207397461,-0.24646073579788208
1742766208756099600,0.884099609375,8.100302696228027,4.988437175750732,-0.3032902777194977
1742766208758496800,0.886496826171875,8.105088233947754,5.012365341186523,-0.32243284583091736
1742766208760894000,0.88889404296875,8.15234661102295,5.0362935066223145,-0.3415754437446594
1742766208763291100,0.891291015625,8.190631866455078,5.0464630126953125,-0.35114672780036926
1742766208765688300,0.893688232421875,8.214560508728027,5.051846981048584,-0.355932354927063
1742766208768085500,0.89608544921875,8.257631301879883,5.047060966491699,-0.3798605799674988
1742766208770482700,0.898482666015625,8.305487632751465,5.047659397125244,-0.40797626972198486
1742766208772880100,0.900880126953125,8.368298530578613,5.039284706115723,-0.42293140292167664
1742766208775277300,0.90327734375,8.431110382080078,5.020740032196045,-0.42771705985069275
1742766208777674500,0.905674560546875,8.4502534866333,5.016552448272705,-0.47557350993156433
1742766208780071700,0.90807177734375,8.507680892944336,5.021936416625977,-0.5084748268127441
1742766208782468900,0.91046875,8.536395072937012,5.01296329498291,-0.5282155871391296
1742766208784866000,0.912865966796875,8.556135177612305,4.989633560180664,-0.5377869009971619
1742766208787263200,0.91526318359375,8.589634895324707,4.994419097900391,-0.5473581552505493
1742766208789660400,0.917660400390625,8.603992462158203,4.96630334854126,-0.5377869009971619
1742766208792057900,0.920057861328125,8.599804878234863,4.932804107666016,-0.519242525100708
1742766208794455000,0.922455078125,8.58604621887207,4.884947299957275,-0.5048855543136597
1742766208796852200,0.924852294921875,8.586644172668457,4.818546772003174,-0.47198426723480225
1742766208799249400,0.92724951171875,8.558527946472168,4.7850470542907715,-0.46719861030578613
1742766208801646600,0.929646484375,8.539983749389648,4.727619171142578,-0.49591249227523804
1742766208804043800,0.932043701171875,8.516056060791016,4.708476543426514,-0.5054838061332703
1742766208806441000,0.93444091796875,8.458627700805664,4.703691005706787,-0.5341976284980774
1742766208808838100,0.936838134765625,8.38145923614502,4.707280158996582,-0.5479564070701599
1742766208811235300,0.9392353515625,8.300103187561035,4.721039295196533,-0.5575276613235474
1742766208813632500,0.941632568359375,8.218149185180664,4.748556613922119,-0.5718846321105957
1742766208816030000,0.944030029296875,8.121838569641113,4.790431022644043,-0.5856433510780334
1742766208818427100,0.94642724609375,8.00638484954834,4.807778835296631,-0.5665007829666138
1742766208820824300,0.94882421875,7.9250288009643555,4.83051061630249,-0.5557330846786499
1742766208823221500,0.951221435546875,7.83410120010376,4.820341110229492,-0.5318048596382141
1742766208825618700,0.95361865234375,7.805387496948242,4.8197431564331055,-0.5222335457801819
1742766208828015900,0.956015869140625,7.8388872146606445,4.8197431564331055,-0.48454657196998596
1742766208830413000,0.9584130859375,7.877171993255615,4.825126647949219,-0.4749752879142761
1742766208832810200,0.960810302734375,7.934599876403809,4.8161540031433105,-0.4654040038585663
1742766208835207700,0.963207763671875,7.982456207275391,4.816751956939697,-0.45643091201782227
1742766208837604900,0.96560498046875,8.083553314208984,4.7988057136535645,-0.4331009089946747
1742766208840002000,0.968001953125,8.059624671936035,4.793421745300293,-0.4139583110809326
1742766208842399200,0.970399169921875,8.097909927368164,4.808377265930176,-0.48035913705825806
1742766208844796400,0.97279638671875,8.169694900512695,4.804787635803223,-0.5042873620986938
1742766208847193600,0.975193603515625,8.25105094909668,4.777270317077637,-0.5048855543136597
1742766208849590800,0.9775908203125,8.404789924621582,4.744967460632324,-0.4384847581386566
1742766208851988000,0.979988037109375,8.578269004821777,4.703691005706787,-0.33439695835113525
1742766208854385400,0.982385498046875,8.751151084899902,4.700700283050537,-0.2967100143432617
1742766208856782600,0.984782470703125,8.866005897521973,4.701896667480469,-0.3158525824546814
1742766208859179800,0.9871796875,8.96112060546875,4.731806755065918,-0.363709032535553
1742766208861577000,0.989576904296875,9.032905578613281,4.746761798858643,-0.38285163044929504
1742766208863974100,0.99197412109375,9.104690551757812,4.7575297355651855,-0.47796630859375
1742766208866371300,0.994371337890625,9.104690551757812,4.743771076202393,-0.5832505226135254
1742766208868768500,0.9967685546875,9.138189315795898,4.758726119995117,-0.6837490797042847
1742766208871165700,0.999165771484375,9.114261627197266,4.744967460632324,-0.7501499056816101
1742766208873563000,1.00156298828125,9.023932456970215,4.686941146850586,-0.7836494445800781
1742766208875960000,1.0039599609375,8.9581298828125,4.610371112823486,-0.7459624409675598
1742766208878357500,1.006357421875,8.863015174865723,4.542773723602295,-0.7363911867141724
1742766208880754700,1.008754638671875,8.729615211486816,4.479363918304443,-0.7746763229370117
1742766208883152000,1.01115185546875,8.572287559509277,4.406980991363525,-0.836291491985321
1742766208885549000,1.013549072265625,8.414361000061035,4.314857482910156,-0.8506484627723694
1742766208887946200,1.0159462890625,8.291728973388672,4.156930923461914,-0.8273184299468994
1742766208890343400,1.018343505859375,8.183453559875488,4.0079779624938965,-0.6993024349212646
1742766208892740600,1.02074072265625,8.09970474243164,3.792025566101074,-0.542572557926178
1742766208895137800,1.0231376953125,8.020143508911133,3.638286828994751,-0.39601215720176697
1742766208897535200,1.02553515625,7.968697547912598,3.5324044227600098,-0.23449662327766418
1742766208899932400,1.027932373046875,7.997411251068115,3.5371899604797363,-0.129810631275177
1742766208902329600,1.03032958984375,8.044670104980469,3.5946178436279297,-0.13459627330303192
1742766208904726800,1.032726806640625,8.13081169128418,3.6191442012786865,-0.09631111472845078
1742766208907124000,1.0351240234375,8.160123825073242,3.5617165565490723,0.10767702013254166
1742766208909521200,1.037521240234375,8.127222061157227,3.555734395980835,0.3026920557022095
1742766208911918300,1.03991845703125,8.193622589111328,3.5748770236968994,0.37926238775253296
1742766208914315500,1.0423154296875,8.217551231384277,3.5844483375549316,0.43130627274513245
1742766208916713000,1.044712890625,8.24686336517334,3.565305709838867,0.5216353535652161
1742766208919110100,1.047110107421875,8.280961036682129,3.5084762573242188,0.5353940725326538
1742766208921507300,1.04950732421875,8.371888160705566,3.5234313011169434,0.5886343717575073
1742766208923904500,1.051904541015625,8.49033260345459,3.6526436805725098,0.6885347366333008
1742766208926301700,1.0543017578125,8.703892707824707,3.8488552570343018,0.8512466549873352
1742766208928699000,1.056698974609375,8.903693199157715,3.978665828704834,1.0558329820632935
1742766208931096000,1.059095947265625,9.073583602905273,4.202394962310791,1.3088740110397339
1742766208933493200,1.0614931640625,9.238688468933105,4.459623336791992,1.5236297845840454
1742766208935890400,1.063890380859375,9.340981483459473,4.72163724899292,1.6295121908187866
1742766208938287900,1.066287841796875,9.371489524841309,4.95493745803833,1.5882359743118286
1742766208940685000,1.06868505859375,9.373284339904785,5.202594757080078,1.5086746215820312
1742766208943082200,1.071082275390625,9.309276580810547,5.373681545257568,1.3573286533355713
1742766208945479400,1.0734794921875,9.275178909301758,5.402993679046631,1.114457130432129
1742766208947876600,1.075876708984375,9.21834945678711,5.351547718048096,0.8715856671333313
1742766208950273800,1.078273681640625,9.190832138061523,5.246861934661865,0.7525427341461182
1742766208952671000,1.0806708984375,9.153144836425781,5.1565327644348145,0.7567301392555237
1742766208955068200,1.083068115234375,9.145368576049805,5.01296329498291,0.8225327730178833
1742766208957465600,1.085465576171875,9.152546882629395,4.82751989364624,0.8883354067802429
1742766208959862800,1.08786279296875,9.192625999450684,4.656432628631592,0.9589236974716187
1742766208962260000,1.090260009765625,9.281160354614258,4.467400074005127,0.981655478477478
1742766208964657200,1.0926572265625,9.378668785095215,4.302295207977295,0.9613165259361267
1742766208967054300,1.095054443359375,9.53360366821289,4.1760735511779785,0.9320043921470642
1742766208969451500,1.097451416015625,9.631111145019531,4.05403995513916,0.8117650747299194
1742766208971848700,1.0998486328125,9.742377281188965,3.961317777633667,0.6873382925987244
1742766208974246000,1.102245849609375,9.834501266479492,3.8763725757598877,0.5431707501411438
1742766208976643300,1.104643310546875,9.902098655700684,3.806980848312378,0.39541393518447876
1742766208979040500,1.10704052734375,9.969695091247559,3.7561333179473877,0.2189432680606842
1742766208981437700,1.109437744140625,9.984650611877441,3.7196428775787354,0.018544375896453857
1742766208983835000,1.1118349609375,9.984052658081055,3.7298123836517334,-0.14297115802764893
1742766208986232000,1.114232177734375,9.969695091247559,3.7393836975097656,-0.25244277715682983
1742766208988629200,1.116629150390625,9.90269660949707,3.762713670730591,-0.3044866919517517
1742766208991026400,1.1190263671875,9.91705322265625,3.757927894592285,-0.2949153780937195
1742766208993423600,1.121423583984375,9.902098655700684,3.786043643951416,-0.24227328598499298
1742766208995820800,1.12382080078125,9.868000984191895,3.8566319942474365,-0.1417747437953949
1742766208998218000,1.126218017578125,9.872187614440918,3.8847475051879883,-0.0323031060397625
1742766209000615400,1.128615478515625,9.852447509765625,3.955335855484009,0.129810631275177
1742766209003012600,1.1310126953125,9.795019149780273,3.9870407581329346,0.28235307335853577
1742766209005409800,1.133409912109375,9.693922996520996,4.018745422363281,0.3732803463935852
1742766209007807000,1.135806884765625,9.640682220458984,4.046861171722412,0.3924229145050049
1742766209010204200,1.1382041015625,9.635896682739258,4.074976921081543,0.41156548261642456
1742766209012601300,1.140601318359375,9.611968994140625,4.046263217926025,0.4498506486415863
1742766209014998500,1.14299853515625,9.574281692504883,4.012763500213623,0.4827519655227661
1742766209017395700,1.145395751953125,9.565308570861816,3.9792640209198,0.4827519655227661
1742766209019793200,1.147793212890625,9.637093544006348,3.9326040744781494,0.46779683232307434
1742766209022190300,1.1501904296875,9.685547828674316,3.9038901329040527,0.49651068449020386
1742766209024587500,1.15258740234375,9.704689979553223,3.899104595184326,0.5150550603866577
1742766209026984700,1.154984619140625,9.714262008666992,3.9086756706237793,0.5150550603866577
1742766209029382000,1.1573818359375,9.69511890411377,3.899104595184326,0.5102694034576416
1742766209031779000,1.159779052734375,9.7005033493042,3.8805601596832275,0.4247260093688965
1742766209034176300,1.16217626953125,9.719645500183105,3.848257064819336,0.32961133122444153
1742766209036573400,1.164573486328125,9.758528709411621,3.8153557777404785,0.2913261651992798
1742766209038971000,1.166970947265625,9.744172096252441,3.796213150024414,0.27696922421455383
1742766209041368000,1.1693681640625,9.806983947753906,3.7639100551605225,0.28594231605529785
1742766209043765200,1.17176513671875,9.821340560913086,3.7633118629455566,0.3242274820804596
1742766209046162400,1.174162353515625,9.81655502319336,3.758526086807251,0.4145565330982208
1742766209048559600,1.1765595703125,9.773484230041504,3.7812578678131104,0.47198426723480225
1742766209050956800,1.178956787109375,9.739984512329102,3.7429728507995605,0.5431707501411438
1742766209053354000,1.18135400390625,9.726225852966309,3.7232320308685303,0.5814558863639832
1742766209055751200,1.183751220703125,9.735796928405762,3.7232320308685303,0.5958128571510315
1742766209058148400,1.1861484375,9.7064847946167,3.7471601963043213,0.5527420043945312
1742766209060545500,1.188545654296875,9.681958198547363,3.7848472595214844,0.5144568681716919
1742766209062943000,1.19094287109375,9.623932838439941,3.8560338020324707,0.41515472531318665
1742766209065340200,1.193340087890625,9.623334884643555,3.913461446762085,0.32542386651039124
1742766209067737300,1.1957373046875,9.56471061706543,4.009174346923828,0.2069791555404663
1742766209070134500,1.198134521484375,9.57787036895752,4.085146427154541,0.1453639715909958
1742766209072531700,1.20053173828125,9.644271850585938,4.1521453857421875,0.21714866161346436
1742766209074929000,1.202928955078125,9.644271850585938,4.142574310302734,0.20757736265659332
1742766209077326000,1.205326171875,9.635298728942871,4.099503517150879,0.25004997849464417
1742766209079723500,1.2077236328125,9.573084831237793,4.099503517150879,0.19800607860088348
1742766209082120700,1.21012060546875,9.4660062789917,4.184448719024658,0.05563312768936157
1742766209084518000,1.212517822265625,9.407979965209961,4.222135543823242,0.02273181453347206
1742766209086915000,1.2149150390625,9.340981483459473,4.235296249389648,0.061016976833343506
1742766209089312300,1.217312255859375,9.321240425109863,4.2586259841918945,0.11844471842050552
1742766209091709400,1.21970947265625,9.441479682922363,4.240679740905762,0.09870393574237823
1742766209094106600,1.222106689453125,9.734601020812988,4.201796531677246,0.04546362906694412
1742766209096503800,1.22450390625,9.561718940734863,4.23230504989624,0.17946170270442963
1742766209098901200,1.2269013671875,9.313464164733887,4.1623148918151855,0.3888336718082428
1742766209101298400,1.22929833984375,9.217751502990723,4.156332969665527,0.43190449476242065
1742766209103695600,1.231695556640625,9.260822296142578,4.147958278656006,0.2799602448940277
1742766209106092800,1.2340927734375,9.30867862701416,4.144967079162598,0.02751746028661728
1742766209108490000,1.236489990234375,9.399007797241211,4.156332969665527,-0.2392822653055191
1742766209110887200,1.23888720703125,9.514460563659668,4.11625337600708,-0.4827519655227661
1742766209113284400,1.241284423828125,9.605986595153809,4.122833251953125,-0.6687939167022705
1742766209115681500,1.243681640625,9.644271850585938,4.100101470947266,-0.8404789566993713
1742766209118078700,1.24607861328125,9.659226417541504,4.063013076782227,-0.9643075466156006
1742766209120476000,1.248475830078125,9.592825889587402,4.010969161987305,-1.0785647630691528
1742766209122873300,1.250873291015625,9.549755096435547,3.982254981994629,-1.2023934125900269
1742766209125270500,1.2532705078125,9.467203140258789,4.029513359069824,-1.2873386144638062
1742766209127667700,1.255667724609375,9.43190860748291,4.1623148918151855,-1.339382529258728
1742766209130065000,1.25806494140625,9.32602596282959,4.204787731170654,-1.4865410327911377
1742766209132462000,1.260462158203125,9.276973724365234,4.29451847076416,-1.5619150400161743
1742766209134859300,1.262859375,9.19980525970459,4.384249210357666,-1.561316728591919
1742766209137256400,1.26525634765625,9.113663673400879,4.354339122772217,-1.4895321130752563
1742766209139653600,1.267653564453125,9.037691116333008,4.319643020629883,-1.389631748199463
1742766209142051000,1.270051025390625,9.014361381530762,4.24785852432251,-1.3615161180496216
1742766209144448300,1.2724482421875,9.159127235412598,4.150351047515869,-1.4811571836471558
1742766209146845400,1.274845458984375,9.16869831085205,4.150351047515869,-1.472184181213379
1742766209149242600,1.27724267578125,8.986844062805176,4.157529354095459,-1.319043517112732
1742766209151639800,1.279639892578125,8.81396198272705,4.19282341003418,-1.2472587823867798
1742766209154037000,1.282037109375,8.745766639709473,4.268795490264893,-1.2945170402526855
1742766209156434200,1.28443408203125,8.654241561889648,4.338785648345947,-1.3124631643295288
1742766209158831400,1.286831298828125,8.448458671569824,4.326821327209473,-1.1886346340179443
1742766209161228800,1.289228759765625,8.322834968566895,4.353142738342285,-1.0785647630691528
1742766209163626000,1.2916259765625,8.207381248474121,4.418346881866455,-1.0115658044815063
1742766209166023200,1.294023193359375,8.192426681518555,4.479363918304443,-0.8823533654212952
1742766209168420400,1.29642041015625,8.196614265441895,4.511667251586914,-0.7112665176391602
1742766209170817500,1.298817626953125,8.25404167175293,4.554139614105225,-0.5635097622871399
1742766209173214700,1.301214599609375,8.329415321350098,4.635495662689209,-0.46779683232307434
1742766209175612000,1.30361181640625,8.425128936767578,4.712066173553467,-0.4103690981864929
1742766209178009000,1.306009033203125,8.523832321166992,4.860421180725098,-0.4384847581386566
1742766209180406300,1.30840625,8.637491226196289,4.980660438537598,-0.542572557926178
1742766209182803500,1.310803466796875,8.737391471862793,5.0638108253479,-0.6047859191894531
1742766209185201000,1.313200927734375,8.851649284362793,5.098506927490234,-0.6622136831283569
1742766209187598000,1.31559814453125,8.918049812316895,5.14157772064209,-0.600000262260437
1742766209189995300,1.317995361328125,8.985647201538086,5.127819061279297,-0.5670989751815796
1742766209192392400,1.320392333984375,9.09093189239502,5.095515727996826,-0.4905286431312561
1742766209194789600,1.32278955078125,9.173483848571777,5.043471813201904,-0.4863412082195282
1742766209197186800,1.325186767578125,9.297910690307617,5.0255255699157715,-0.46779683232307434
1742766209199584000,1.327583984375,9.479764938354492,5.036891460418701,-0.44446679949760437
1742766209201981400,1.3299814453125,9.671789169311523,5.038686275482178,-0.4259224236011505
1742766209204378600,1.332378662109375,9.835099220275879,5.030909538269043,-0.40737804770469666
1742766209206775800,1.33477587890625,9.930811882019043,5.017749309539795,-0.40737804770469666
1742766209209173000,1.337173095703125,9.92124080657959,5.008177757263184,-0.4217349886894226
1742766209211570200,1.339570068359375,9.893125534057617,4.989035129547119,-0.4408775866031647
1742766209213967400,1.34196728515625,9.828518867492676,4.780261516571045,-0.5850451588630676
1742766209216364500,1.344364501953125,9.817750930786133,4.837090969085693,-0.6083751320838928
1742766209218761700,1.34676171875,9.912267684936523,4.957330226898193,-0.6364908218383789
1742766209221159200,1.3491591796875,10.02592658996582,5.0638108253479,-0.6652047038078308
1742766209223556400,1.351556396484375,10.112068176269531,5.078167915344238,-0.5455635786056519
1742766209225953500,1.35395361328125,10.123434066772461,4.9435715675354,-0.2512463629245758
1742766209228350700,1.356350830078125,10.152746200561523,4.932804107666016,0.06759724020957947
1742766209230748000,1.358747802734375,10.189835548400879,5.031507968902588,0.35832518339157104
1742766209233145000,1.36114501953125,10.293923377990723,5.117649555206299,0.4773681163787842
1742766209235542300,1.363542236328125,10.307083129882812,5.245665550231934,0.5587241053581238
1742766209237939500,1.365939453125,10.228120803833008,5.435296535491943,0.4456632137298584
1742766209240336600,1.368336669921875,10.205389022827148,5.749354839324951,0.2955136001110077
1742766209242733800,1.37073388671875,10.198209762573242,5.958128452301025,0.3200400173664093
1742766209245131300,1.37313134765625,10.187442779541016,6.057430744171143,0.46360939741134644
1742766209247528400,1.375528564453125,10.201799392700195,6.0987067222595215,0.6975077986717224
1742766209249925600,1.377925537109375,10.230513572692871,6.0741801261901855,0.9732806086540222
1742766209252322800,1.38032275390625,10.115657806396484,6.095715522766113,1.164108157157898
1742766209254720000,1.382719970703125,10.143773078918457,6.151947021484375,1.3357932567596436
1742766209257117200,1.3851171875,10.273584365844727,6.119643688201904,1.5302101373672485
1742766209259514400,1.387514404296875,10.374680519104004,6.105287075042725,1.7587246894836426
1742766209261911800,1.389911865234375,10.51346492767334,6.096313953399658,1.9680966138839722
1742766209264309000,1.39230908203125,10.614561080932617,6.034698486328125,2.114656925201416
1742766209266706200,1.3947060546875,10.653444290161133,6.029912948608398,2.23848557472229
1742766209269103400,1.397103271484375,10.638489723205566,6.062216281890869,2.4335005283355713
1742766209271500500,1.39950048828125,10.581061363220215,6.060421466827393,2.6147570610046387
1742766209273897700,1.401897705078125,10.457831382751465,5.963512420654297,2.6907291412353516
1742766209276295000,1.404294921875,10.207781791687012,5.639284610748291,2.4945175647735596
1742766209278692000,1.406692138671875,9.963713645935059,5.205585479736328,2.2307088375091553
1742766209281089300,1.40908935546875,9.799206733703613,4.910071849822998,2.011167526245117
1742766209283486700,1.41148681640625,9.781859397888184,4.758127689361572,1.8771693706512451
1742766209285884000,1.4138837890625,9.839884757995605,4.707280158996582,1.7623138427734375
1742766209288281000,1.416281005859375,9.91705322265625,4.655834674835205,1.7240287065505981
1742766209290678300,1.41867822265625,9.955936431884766,4.594817638397217,1.7234305143356323
1742766209293075500,1.421075439453125,9.937392234802246,4.557130813598633,1.6462619304656982
1742766209295472600,1.42347265625,9.908679008483887,4.518845558166504,1.5798611640930176
1742766209297869800,1.425869873046875,9.856635093688965,4.504488468170166,1.5272190570831299
1742766209300267000,1.42826708984375,9.836894035339355,4.518247127532959,1.5086746215820312
1742766209302664200,1.430664306640625,9.798608779907227,4.53200626373291,1.5134602785110474
1742766209305061600,1.4330615234375,9.754940032958984,4.598406791687012,1.5284154415130615
1742766209307458800,1.435458740234375,9.715457916259766,4.659423828125,1.5427724123001099
1742766209309856000,1.43785595703125,9.701101303100586,4.687539577484131,1.6193426847457886
1742766209312253200,1.440253173828125,9.643074989318848,4.738387107849121,1.72941255569458
1742766209314650400,1.442650390625,9.627521514892578,4.8329033851623535,1.8394824266433716
1742766209317047600,1.445047607421875,9.636494636535645,4.913063049316406,1.9399809837341309
1742766209319444700,1.44744482421875,9.755537986755371,4.938187599182129,1.9304096698760986
1742766209321842000,1.449842041015625,9.886545181274414,4.816751956939697,1.8245272636413574
1742766209324239400,1.4522392578125,9.940383911132812,4.689334392547607,1.7527425289154053
1742766209326636500,1.454636474609375,10.023533821105957,4.562514781951904,1.689931035041809
1742766209329033700,1.45703369140625,10.147960662841797,4.545166492462158,1.6366907358169556
1742766209331431000,1.459430908203125,10.233504295349121,4.59421968460083,1.4841482639312744
1742766209333828000,1.461828125,10.299306869506836,4.685744762420654,1.303490161895752
1742766209336225300,1.464225341796875,10.394421577453613,4.782654285430908,1.113858938217163
1742766209338622500,1.46662255859375,10.527223587036133,4.861617565155029,0.8757730722427368
1742766209341019600,1.46901953125,10.584650993347168,4.8675994873046875,0.6807580590248108
1742766209343416800,1.471416748046875,10.584053039550781,4.9160542488098145,0.4707878530025482
1742766209345814300,1.473814208984375,10.597811698913574,4.931607246398926,0.28534409403800964
1742766209348211500,1.47621142578125,10.588240623474121,4.951946258544922,0
1742766209350595300,1.47859521484375,10.585846900939941,5.111069202423096,-0.3655036687850952
1742766209353005800,1.481005859375,10.667801856994629,5.127220630645752,-0.6520441770553589
1742766209355403000,1.483403076171875,10.638489723205566,5.109274387359619,-0.8943174481391907
1742766209357787000,1.485786865234375,10.475179672241211,5.14157772064209,-1.1030912399291992
1742766209360197400,1.488197265625,10.415956497192383,5.288736343383789,-1.1832507848739624
1742766209362594600,1.490594482421875,10.248459815979004,5.282155990600586,-1.1832507848739624
1742766209364992000,1.492991943359375,9.942177772521973,5.231308460235596,-1.1730812788009644
1742766209367389200,1.49538916015625,9.574281692504883,5.198407173156738,-1.124626636505127
1742766209369786400,1.497786376953125,9.374481201171875,5.414957523345947,-1.0995019674301147
1742766209372183600,1.50018359375,9.161520004272461,5.597410202026367,-1.031306505203247
1742766209374580700,1.502580810546875,8.86780071258545,5.7649078369140625,-0.9391828775405884
1742766209376978000,1.50497802734375,8.670392990112305,5.861817359924316,-0.833898663520813
1742766209379361800,1.50736181640625,8.310273170471191,5.862415313720703,-0.7519445419311523
1742766209381772300,1.509772216796875,7.860422611236572,5.843272686004639,-0.7226324677467346
1742766209384169700,1.512169677734375,7.381259441375732,5.866004943847656,-0.6735795736312866
1742766209386553300,1.51455322265625,6.939185619354248,5.91804838180542,-0.6628118753433228
1742766209388964000,1.516964111328125,6.555736064910889,5.976074695587158,-0.6807580590248108
1742766209391361300,1.519361328125,6.267998695373535,6.010770320892334,-0.6753742098808289
1742766209393745200,1.5217451171875,6.031707763671875,6.0747785568237305,-0.6837490797042847
1742766209396155600,1.52415576171875,5.621338367462158,5.941378593444824,-0.5072783827781677
1742766209398552800,1.526552734375,5.262415409088135,6.333203315734863,-0.7334001660346985
1742766209400936700,1.528936767578125,5.301896572113037,6.623931407928467,-0.836291491985321
1742766209403347200,1.53134716796875,5.280361175537109,6.833901405334473,-1.0354939699172974
1742766209405744400,1.533744384765625,5.149354457855225,6.967301368713379,-1.472184181213379
1742766209408128300,1.536128173828125,5.062016487121582,7.021139621734619,-2.00518536567688
1742766209410539000,1.5385390625,5.095515727996826,7.009175777435303,-2.4047868251800537
1742766209412936200,1.540936279296875,5.229514122009277,7.0025954246521,-2.7050859928131104
1742766209415320000,1.543320068359375,5.536393165588379,6.992425918579102,-2.9204399585723877
1742766209417730600,1.54573046875,5.846862316131592,7.0301127433776855,-3.0352954864501953
1742766209420127700,1.548127685546875,6.168098449707031,7.000202655792236,-3.1076784133911133
1742766209422525000,1.55052490234375,6.476174354553223,6.93739128112793,-3.1561331748962402
1742766209424922000,1.552922119140625,6.769893646240234,6.8171515464782715,-3.119642496109009
1742766209427319600,1.555319580078125,7.044469833374023,6.672386169433594,-2.977867841720581
1742766209429716700,1.557716796875,7.2711896896362305,6.545566558837891,-2.7690939903259277
1742766209432114000,1.560114013671875,7.4602227210998535,6.399005889892578,-2.5088746547698975
1742766209434511000,1.562510986328125,7.5912299156188965,6.284748554229736,-2.1577277183532715
1742766209436908300,1.564908203125,7.715656757354736,6.284748554229736,-1.867598056793213
1742766209439305500,1.567305419921875,7.807182312011719,6.28415060043335,-1.557727575302124
1742766209441702700,1.56970263671875,7.8556365966796875,6.259624004364014,-1.2580264806747437
1742766209444100000,1.57210009765625,7.836493968963623,6.238687038421631,-1.0157532691955566
1742766209446497300,1.574497314453125,7.770691394805908,6.13699197769165,-0.7830511927604675
1742766209448894500,1.57689453125,7.667201995849609,5.968297958374023,-0.5647061467170715
1742766209451291600,1.579291748046875,7.574480056762695,5.748756408691406,-0.4743770956993103
1742766209453688800,1.581688720703125,7.413562774658203,5.556732177734375,-0.47976094484329224
1742766209456086000,1.5840859375,7.277172088623047,5.313860893249512,-0.6622136831283569
1742766209458483200,1.586483154296875,7.101299285888672,5.147559642791748,-0.9912267923355103
1742766209460880400,1.58888037109375,6.897311210632324,4.994419097900391,-1.32921302318573
1742766209463277600,1.591277587890625,6.635895252227783,4.803591251373291,-1.730010747909546
1742766209465674800,1.5936748046875,6.368497371673584,4.689334392547607,-2.239083766937256
1742766209468072200,1.596072265625,6.099903106689453,4.6785664558410645,-2.6572296619415283
1742766209470469400,1.598469482421875,5.849853038787842,4.739583492279053,-2.9802606105804443
1742766209472853200,1.600853271484375,5.5621161460876465,4.756333351135254,-3.184248685836792
1742766209475263700,1.603263671875,5.213960647583008,4.610969066619873,-3.346362352371216
1742766209477661000,1.605660888671875,4.938187599182129,4.788636207580566,-3.4061830043792725
1742766209480044800,1.608044921875,4.842474937438965,4.820341110229492,-3.2967114448547363
1742766209482455300,1.610455322265625,4.766502857208252,4.72881555557251,-3.187239646911621
1742766209484852500,1.6128525390625,4.687539577484131,4.556532382965088,-3.1214370727539062
1742766209487250000,1.61525,4.650450706481934,4.436891555786133,-2.998206853866577
1742766209489647000,1.617647216796875,4.598406791687012,4.373481750488281,-2.8079774379730225
1742766209492044300,1.620044189453125,4.566103935241699,4.264009952545166,-2.7415764331817627
1742766209494441500,1.62244140625,4.595416069030762,4.263411521911621,-2.651247501373291
1742766209496838700,1.624838623046875,4.589433670043945,4.3483567237854,-2.455634355545044
1742766209499235800,1.62723583984375,4.575077056884766,4.342973232269287,-2.3748764991760254
1742766209501633000,1.629633056640625,4.6372904777526855,4.347758769989014,-2.294118642807007
1742766209504030200,1.6320302734375,4.670191764831543,4.436891555786133,-2.03629207611084
1742766209506427600,1.634427734375,4.660620212554932,4.450650215148926,-1.908276081085205
1742766209508824800,1.636824951171875,4.718048095703125,4.460221290588379,-1.841277003288269
1742766209511222000,1.639221923828125,4.798207759857178,4.559523582458496,-1.5690934658050537
1742766209513619200,1.641619140625,4.817948341369629,4.5308098793029785,-1.46500563621521
1742766209516016400,1.644016357421875,4.9190449714660645,4.498506546020508,-1.3603196144104004
1742766209518413600,1.64641357421875,5.0087761878967285,4.573880672454834,-1.1126625537872314
1742766209520810800,1.648810791015625,4.969294548034668,4.700101852416992,-0.8027920126914978
1742766209523208000,1.6512080078125,5.023132801055908,4.615755081176758,-0.8321040868759155
1742766209525605000,1.653605224609375,5.216951370239258,4.484747886657715,-0.851844847202301
1742766209528002600,1.65600244140625,5.3353962898254395,4.575077056884766,-0.6185446381568909
1742766209530399700,1.658399658203125,5.326423168182373,4.555934429168701,-0.5952146053314209
1742766209532797000,1.660796875,5.412564754486084,4.524229526519775,-0.6622136831283569
1742766209535194000,1.663194091796875,5.672784328460693,4.422534465789795,-0.6771687865257263
1742766209537591300,1.66559130859375,5.9545392990112305,4.092324733734131,-0.48873403668403625
1742766209539988500,1.667988525390625,6.314659118652344,3.6610186100006104,0.012562318705022335
1742766209542385700,1.6703857421875,6.8171515464782715,3.2829527854919434,0.6526423692703247
1742766209544769500,1.67276953125,7.191030025482178,3.2763724327087402,0.8799605369567871
1742766209547180300,1.67518017578125,7.320840835571289,3.693321704864502,0.4247260093688965
1742766209549577500,1.677577392578125,7.699504852294922,4.066003799438477,-0.07896314561367035
1742766209551961300,1.67996142578125,8.109275817871094,4.214358806610107,-0.3170489966869354
1742766209554371800,1.682371826171875,8.497511863708496,4.237689018249512,-0.35114672780036926
1742766209556769000,1.68476904296875,8.910273551940918,4.161118507385254,-0.30927231907844543
1742766209559153000,1.68715283203125,9.147761344909668,3.9355950355529785,-0.2877369225025177
1742766209561563400,1.6895634765625,9.375677108764648,3.7190446853637695,-0.29371899366378784
1742766209563960600,1.691960693359375,9.592227935791016,3.64546537399292,-0.2757728099822998
1742766209566344400,1.694344482421875,9.722038269042969,3.6329028606414795,-0.36670008301734924
1742766209568755200,1.696755126953125,10.129416465759277,3.5676984786987305,-0.7489534616470337
1742766209571152400,1.69915234375,10.473384857177734,3.659224033355713,-1.158724308013916
1742766209573536300,1.701536376953125,10.593624114990234,3.985246181488037,-1.399801254272461
1742766209575946800,1.70394677734375,10.502696990966797,4.398606300354004,-1.6163517236709595
1742766209578344000,1.706343994140625,10.302297592163086,4.720440864562988,-1.8478572368621826
1742766209580741000,1.7087412109375,10.007980346679688,4.917250633239746,-2.0273189544677734
1742766209583138300,1.71113818359375,9.724431037902832,4.976472854614258,-2.1403799057006836
1742766209585535500,1.713535400390625,9.53779125213623,4.922634601593018,-2.149951219558716
1742766209587932700,1.7159326171875,9.42054271697998,4.731208801269531,-2.121835470199585
1742766209590330000,1.718330078125,9.394820213317871,4.455435752868652,-2.11405873298645
1742766209592727300,1.720727294921875,9.374481201171875,4.150949001312256,-2.077568292617798
1742766209595124500,1.72312451171875,9.343972206115723,3.8697924613952637,-2.026122570037842
1742766209597521700,1.725521728515625,9.379864692687988,3.6843485832214355,-1.9369899034500122
1742766209599918800,1.7279189453125,9.396016120910645,3.556332588195801,-1.8999011516571045
1742766209602316000,1.73031591796875,9.405587196350098,3.5132617950439453,-1.8855443000793457
1742766209604713200,1.732713134765625,9.391230583190918,3.5132617950439453,-1.8664016723632812
1742766209607110700,1.735110595703125,9.347561836242676,3.57906436920166,-1.7994025945663452
1742766209609507800,1.7375078125,9.327820777893066,3.6257245540618896,-1.7276179790496826
1742766209611905000,1.739905029296875,9.32722282409668,3.696911096572876,-1.703689694404602
1742766209614302200,1.74230224609375,9.320642471313477,3.833899974822998,-1.6211373805999756
1742766209616699400,1.744699462890625,9.20997428894043,3.8943188190460205,-1.5876377820968628
1742766209619096600,1.7470966796875,9.037691116333008,3.896711587905884,-1.506281852722168
1742766209621493800,1.74949365234375,8.8109712600708,4.012165546417236,-1.1718848943710327
1742766209623891000,1.751890869140625,8.642276763916016,4.150351047515869,-0.6616154313087463
1742766209626288400,1.754288330078125,8.471190452575684,4.046861171722412,-0.22851456701755524
1742766209628685600,1.756685546875,8.292326927185059,3.7298123836517334,-0.03409772366285324
1742766209631082800,1.759082763671875,8.0955171585083,3.3619158267974854,-0.02153540402650833
1742766209633480000,1.76147998046875,7.902296543121338,3.0939197540283203,-0.013160524889826775
1742766209635877000,1.763877197265625,7.692924976348877,2.9970104694366455,-0.0323031060397625
1742766209638274300,1.7662744140625,7.467401027679443,3.008974552154541,-0.10289137065410614
1742766209640671500,1.76867138671875,7.319046497344971,2.9892337322235107,-0.26440688967704773
1742766209643068700,1.771068603515625,7.045068264007568,3.029911756515503,-0.5300102233886719
1742766209645465900,1.7734658203125,6.930810928344727,2.963510751724243,-0.7022934556007385
1742766209647863000,1.775863037109375,6.670591354370117,3.0424740314483643,-0.9343972206115723
1742766209650260500,1.778260498046875,6.627520561218262,3.056830883026123,-1.0767701864242554
1742766209652657700,1.78065771484375,6.69571590423584,2.939582586288452,-1.2490534782409668
1742766209655054800,1.783054931640625,6.798008918762207,2.779263496398926,-1.4117653369903564
1742766209657452000,1.7854521484375,6.900900363922119,2.610569477081299,-1.5744773149490356
1742766209659849200,1.78784912109375,6.954140663146973,2.5357937812805176,-1.709073543548584
1742766209662246400,1.790246337890625,6.959524631500244,2.4885356426239014,-1.7377874851226807
1742766209664643600,1.7926435546875,6.978667259216309,2.50289249420166,-1.709073543548584
1742766209667041000,1.795041015625,7.045068264007568,2.5603201389312744,-1.7234305143356323
1742766209669438200,1.797438232421875,7.121638298034668,2.5663022994995117,-1.77607262134552
1742766209671835400,1.79983544921875,7.226922512054443,2.557927370071411,-1.8239290714263916
1742766209674232600,1.802232666015625,7.323832035064697,2.531008243560791,-1.8574285507202148
1742766209676629800,1.804629638671875,7.376473903656006,2.5076780319213867,-1.8526428937911987
1742766209679027000,1.80702685546875,7.343572616577148,2.459223508834839,-1.786242127418518
1742766209681424100,1.809424072265625,7.689335346221924,2.368894338607788,-1.8640087842941284
1742766209683821300,1.8118212890625,7.843672752380371,2.2947168350219727,-1.9645073413848877
1742766209686218800,1.81421875,8.011768341064453,2.2402801513671875,-2.045863389968872
1742766209688616000,1.816615966796875,8.14098072052002,2.231905221939087,-2.1032910346984863
1742766209691013000,1.81901318359375,8.255836486816406,2.276172637939453,-2.070389747619629
1742766209693410300,1.821410400390625,8.346763610839844,2.262413740158081,-2.0608184337615967
1742766209695807500,1.823807373046875,8.539983749389648,2.155334949493408,-2.0620148181915283
1742766209698204700,1.82620458984375,8.59322452545166,2.145763635635376,-1.8478572368621826
1742766209700601900,1.828601806640625,9.028717994689941,2.163111686706543,-1.5625132322311401
1742766209702999000,1.8309990234375,9.144769668579102,2.1020946502685547,-1.425524115562439
1742766209705396200,1.833396240234375,9.29910659790039,1.9986051321029663,-1.3357932567596436
1742766209707793700,1.835793701171875,9.350552558898926,2.107478618621826,-1.1114661693572998
1742766209710190800,1.83819091796875,8.989236831665039,2.310868501663208,-0.8051848411560059
1742766209712588000,1.840588134765625,9.0514497756958,1.877767562866211,-1.4452649354934692
1742766209714985200,1.842985107421875,8.84805965423584,1.6289139986038208,-1.6648063659667969
1742766209717382400,1.84538232421875,9.382257461547852,1.4033905267715454,-1.9058831930160522
1742766209719779600,1.847779541015625,10.013962745666504,1.490728497505188,-1.8592232465744019
1742766209722176800,1.8501767578125,10.269994735717773,1.3381860256195068,-2.132004976272583
1742766209724560600,1.852560546875,10.50090217590332,1.236491084098816,-2.1756739616394043
1742766209726971400,1.854971435546875,10.831709861755371,0.8279166221618652,-2.4640090465545654
1742766209729368600,1.85736865234375,11.460424423217773,0.7172485589981079,-2.737389087677002
1742766209731752400,1.85975244140625,11.13021469116211,1.0911271572113037,-2.211566209793091
1742766209734163000,1.862162841796875,12.19382381439209,1.561316728591919,-1.7928223609924316
1742766209736560000,1.86456005859375,12.159128189086914,1.6558332443237305,-1.6875381469726562
1742766209738944000,1.866944091796875,12.016755104064941,1.5643078088760376,-1.7395820617675781
1742766209741354500,1.8693544921875,11.988639831542969,1.511067509651184,-1.6630117893218994
1742766209743751700,1.871751708984375,11.973684310913086,1.571486234664917,-1.4297115802764893
1742766209746148900,1.87414892578125,11.896515846252441,1.6360924243927002,-1.1910275220870972
1742766209748546300,1.87654638671875,11.905488967895508,1.664208173751831,-1.0959128141403198
1742766209750943500,1.878943603515625,11.982657432556152,1.612762451171875,-1.067797064781189
1742766209753340700,1.881340576171875,11.983255386352539,1.5744773149490356,-1.054038405418396
1742766209755737900,1.88373779296875,11.96471118927002,1.5314065217971802,-1.0061819553375244
1742766209758135000,1.886135009765625,11.840883255004883,1.4775680303573608,-0.9684949517250061
1742766209760532200,1.8885322265625,11.673385620117188,1.4380863904953003,-0.9918249845504761
1742766209762929400,1.890929443359375,11.462218284606934,1.4219348430633545,-1.0821540355682373
1742766209765326600,1.89332666015625,11.257034301757812,1.4009976387023926,-1.1198409795761108
1742766209767723800,1.895723876953125,11.008180618286133,1.332203984260559,-1.186241865158081
1742766209770121200,1.898121337890625,10.674980163574219,1.1958130598068237,-1.2526426315307617
1742766209772518400,1.900518310546875,10.283753395080566,1.0109676122665405,-1.2239288091659546
1742766209774915600,1.90291552734375,9.897313117980957,0.849452018737793,-1.114457130432129
1742766209777312800,1.905312744140625,9.453444480895996,0.6825526356697083,-0.9810572862625122
1742766209779710000,1.9077099609375,9.004789352416992,0.5431707501411438,-0.8189435601234436
1742766209782093800,1.91009375,8.565707206726074,0.4336991012096405,-0.714257538318634
1742766209784504300,1.91250439453125,8.201997756958008,0.36311084032058716,-0.6562315821647644
1742766209786901800,1.91490185546875,7.871788501739502,0.3164508044719696,-0.6370890140533447
1742766209789285400,1.917285400390625,7.565506935119629,0.28893333673477173,-0.5264210104942322
1742766209791696100,1.919696044921875,7.297510623931885,0.28953152894973755,-0.3068794906139374
1742766209794093300,1.92209326171875,7.086942672729492,0.21954147517681122,-0.054436713457107544
1742766209796477200,1.924477294921875,6.958926677703857,0.13698910176753998,0.10707881301641464
1742766209798887700,1.9268876953125,6.865008354187012,-0.02153540402650833,0.23030917346477509
1742766209801284900,1.929284912109375,6.856633186340332,-0.11246266216039658,0.3439682424068451
1742766209803668700,1.931668701171875,6.876374244689941,-0.15553347766399384,0.4486542344093323
1742766209806079200,1.934079345703125,6.919445037841797,-0.15493527054786682,0.4863412082195282
1742766209808476400,1.936476318359375,7.0199432373046875,-0.1585244983434677,0.49591249227523804
1742766209810873900,1.938873779296875,7.197610378265381,-0.20398813486099243,0.4049852192401886
1742766209813271000,1.94127099609375,7.390830993652344,-0.267397940158844,0.1663011759519577
1742766209815668200,1.943668212890625,7.659425258636475,-0.3242274820804596,-0.13938191533088684
1742766209818065400,1.9460654296875,8.003992080688477,-0.34277185797691345,-0.49710890650749207
1742766209820462600,1.948462646484375,8.401200294494629,-0.32721850275993347,-0.8554341197013855
1742766209822859800,1.95085986328125,8.833105087280273,-0.32602208852767944,-1.1611171960830688
1742766209825257000,1.953257080078125,9.244669914245605,-0.30568310618400574,-1.4380863904953003
1742766209827654400,1.955654296875,9.6466646194458,-0.28594231605529785,-1.7198412418365479
1742766209830051600,1.958051513671875,10.05823040008545,-0.26560330390930176,-2.011167526245117
1742766209832435500,1.960435546875,10.374082565307617,-0.20877377688884735,-2.3306093215942383
1742766209834846000,1.962845947265625,10.41057300567627,-0.10707881301641464,-2.568096876144409
1742766209837243100,1.9652431640625,10.39083194732666,-0.020937198773026466,-2.748156785964966
1742766209839627000,1.967626953125,10.835897445678711,0.037088751792907715,-3.0209386348724365
1742766209842037500,1.97003759765625,11.190034866333008,0.04187439754605293,-3.2452657222747803
1742766209844434700,1.9724345703125,11.36351490020752,-0.06400800496339798,-3.483949661254883
1742766209846818600,1.974818603515625,11.506485939025879,0.03170489892363548,-3.3888349533081055
1742766209849229300,1.977229248046875,11.387442588806152,0.3565305769443512,-3.005983352661133
1742766209851626500,1.97962646484375,11.032109260559082,0.9050851464271545,-2.183450698852539
1742766209854023700,1.982023681640625,10.171889305114746,0.6681957244873047,-2.2540390491485596
1742766209856420900,1.9844208984375,10.436295509338379,-0.2560320198535919,-3.1926236152648926
1742766209858818000,1.986818115234375,10.89990520477295,-1.0037890672683716,-3.8213376998901367
1742766209861215200,1.98921533203125,11.11765193939209,-1.1868400573730469,-3.803391695022583
1742766209863612400,1.9916123046875,12.303296089172363,-0.48873403668403625,-2.9174489974975586
1742766209866009600,1.994009521484375,12.662817001342773,-0.06520441919565201,-2.287538528442383
1742766209868393500,1.9963935546875,12.705289840698242,-0.02273181453347206,-2.210968017578125
1742766209870804200,1.99880419921875,12.576077461242676,-0.010169495828449726,-2.1583259105682373
1742766209873201400,2.001201416015625,12.598211288452148,0.13100704550743103,-1.8436698913574219
1742766209875598600,2.0035986328125,12.357133865356445,0.29790642857551575,-1.4327025413513184
1742766209877995800,2.005995849609375,12.223734855651855,0.26560330390930176,-1.0037890672683716
1742766209880393000,2.00839306640625,12.014960289001465,0.09990034252405167,-0.5808576941490173
1742766209882776800,2.01077685546875,11.772089004516602,-0.014356935396790504,-0.0568295381963253
1742766209885187300,2.013187255859375,11.513066291809082,-0.0005982056609354913,0.4384847581386566
1742766209887584800,2.015584716796875,11.138589859008789,0.08793623000383377,0.9020941257476807
1742766209889968400,2.017968505859375,10.73121166229248,0.14895321428775787,1.1461620330810547
1742766209892379100,2.020379150390625,10.318449020385742,0.17706887423992157,1.2137593030929565
1742766209894776300,2.0227763671875,9.94397258758545,0.21655045449733734,1.1670992374420166
1742766209897160200,2.02516015625,9.561120986938477,0.21714866161346436,1.0971091985702515
1742766209899570700,2.02757080078125,9.129216194152832,0.2273181527853012,0.9834501147270203
1742766209901968000,2.0299677734375,8.745766639709473,0.25722843408584595,0.8656035661697388
1742766209904351700,2.032351806640625,8.356932640075684,0.25782662630081177,0.776470959186554
1742766209906762500,2.034762451171875,8.0081787109375,0.21176479756832123,0.7148557901382446
1742766209909159700,2.03715966796875,7.673183917999268,0.14656038582324982,0.7010970115661621
1742766209911543300,2.039543212890625,7.309474945068359,0.1381855010986328,0.6496513485908508
1742766209913954000,2.0419541015625,6.9583282470703125,0.1824527233839035,0.5168496966362
1742766209916351200,2.044351318359375,6.569494724273682,0.2883351147174835,0.31824541091918945
1742766209918735000,2.046735107421875,6.203990936279297,0.4133601188659668,0.12921242415905
1742766209921145600,2.0491455078125,6.006583213806152,0.4492524564266205,0.18723836541175842
1742766209923542800,2.051542724609375,5.8343000411987305,0.4091726839542389,0.24466611444950104
1742766209925926700,2.0539267578125,5.74397087097168,0.3415754437446594,0.22971096634864807
1742766209928337200,2.056337158203125,5.720640659332275,0.29012975096702576,0.09631111472845078
1742766209930734600,2.058734619140625,5.7792649269104,0.2153540402650833,-0.02751746028661728
1742766209933131800,2.0611318359375,5.941977024078369,0.1986042857170105,-0.21355941891670227
1742766209935529000,2.063529052734375,6.195616245269775,0.259621262550354,-0.4139583110809326
1742766209937926100,2.065926025390625,6.476772785186768,0.3774677813053131,-0.5952146053314209
1742766209940323300,2.0683232421875,6.748358249664307,0.48514479398727417,-0.7046862840652466
1742766209942720500,2.070720458984375,7.005586624145508,0.5982056856155396,-0.7668996453285217
1742766209945117700,2.07311767578125,7.307680130004883,0.6436693072319031,-0.6909275650978088
1742766209947515100,2.07551513671875,7.551748275756836,0.6508477330207825,-0.5868397355079651
1742766209949912300,2.077912353515625,7.87358283996582,0.5916253924369812,-0.4588237404823303
1742766209952309500,2.0803095703125,8.204390525817871,0.5461617708206177,-0.2835494875907898
1742766209954693400,2.082693359375,8.598608016967773,0.49710890650749207,-0.06580262631177902
1742766209957103900,2.085103759765625,8.934800148010254,0.45284169912338257,0.10408778488636017
1742766209959501000,2.0875009765625,9.255437850952148,0.4414757788181305,0.16091732680797577
1742766209961885000,2.089885009765625,9.572486877441406,0.4408775866031647,0.07896314561367035
1742766209964295400,2.09229541015625,9.844072341918945,0.5533402562141418,-0.030508488416671753
1742766209966692900,2.09469287109375,10.053443908691406,0.6664010882377625,-0.24945175647735596
1742766209969076500,2.097076416015625,10.276575088500977,0.8171489238739014,-0.486939400434494
1742766209971487200,2.0994873046875,10.518250465393066,1.0115658044815063,-0.8057830333709717
1742766209973884400,2.101884521484375,10.808978080749512,1.164108157157898,-1.290927767753601
1742766209976268300,2.104268310546875,11.038688659667969,1.1832507848739624,-1.7964116334915161
1742766209978678800,2.1066787109375,11.196615219116211,1.1670992374420166,-2.025524377822876
1742766209981076000,2.109075927734375,11.315658569335938,1.2538390159606934,-1.9680966138839722
1742766209983459800,2.1114599609375,11.36770248413086,1.296311616897583,-1.882553219795227
1742766209985870300,2.113870361328125,11.334800720214844,1.2717852592468262,-1.8113667964935303
1742766209988267800,2.116267822265625,11.221141815185547,1.1282159090042114,-1.7353945970535278
1742766209990665000,2.1186650390625,11.089536666870117,0.9547362327575684,-1.5690934658050537
1742766209993062100,2.121062255859375,10.933404922485352,0.7854440212249756,-1.2646067142486572
1742766209995459300,2.123459228515625,10.743175506591797,0.6586244106292725,-0.9463613629341125
1742766209997856500,2.1258564453125,10.476375579833984,0.534795880317688,-0.6275177597999573
1742766210000253700,2.128253662109375,10.16590690612793,0.4301098585128784,-0.3601198196411133
1742766210002651000,2.13065087890625,9.850652694702148,0.40677985548973083,-0.16929219663143158
1742766210005048000,2.133048095703125,9.491130828857422,0.388235479593277,-0.054436713457107544
1742766210007445500,2.135445556640625,9.17467975616455,0.37028929591178894,-0.03469592705368996
1742766210009842700,2.1378427734375,8.883354187011719,0.31046873331069946,-0.029312077909708023
1742766210012226600,2.1402265625,8.611170768737793,0.25064817070961,-0.048454657196998596
1742766210014637000,2.142636962890625,8.372486114501953,0.1381855010986328,-0.0005982056609354913
1742766210017034200,2.1450341796875,8.210970878601074,0.013160524889826775,0.06580262631177902
1742766210019418000,2.147418212890625,8.10269546508789,-0.12622138857841492,0.13160525262355804
1742766210021828600,2.14982861328125,7.99382209777832,-0.26081767678260803,0.18364913761615753
1742766210024225800,2.152225830078125,7.956135272979736,-0.31764721870422363,0.12622138857841492
1742766210026623000,2.154623046875,7.923233985900879,-0.35114672780036926,0.05024927482008934
1742766210029020400,2.1570205078125,7.932805061340332,-0.3696911036968231,-0.049651071429252625
1742766210031417600,2.15941748046875,8.018946647644043,-0.36311084032058716,-0.1453639715909958
1742766210033814800,2.161814697265625,8.11406135559082,-0.3284149169921875,-0.32123643159866333
1742766210036212000,2.1642119140625,8.263014793395996,-0.35413774847984314,-0.5455635786056519
1742766210038609200,2.166609130859375,8.450851440429688,-0.3936193287372589,-0.7992027401924133
1742766210041006300,2.16900634765625,8.628518104553223,-0.4378865361213684,-0.9900303483009338
1742766210043403500,2.171403564453125,8.781659126281738,-0.4408775866031647,-1.113858938217163
1742766210045800700,2.17380078125,8.86780071258545,-0.4534398913383484,-1.2382856607437134
1742766210048198100,2.1761982421875,8.949156761169434,-0.4707878530025482,-1.323829174041748
1742766210050595300,2.17859521484375,8.997013092041016,-0.4749752879142761,-1.3908281326293945
1742766210052992500,2.180992431640625,9.05982494354248,-0.4833501875400543,-1.43389892578125
1742766210055389700,2.1833896484375,9.145966529846191,-0.46839502453804016,-1.4051851034164429
1742766210057787000,2.185786865234375,9.246464729309082,-0.4815555512905121,-1.3722838163375854
1742766210060184000,2.18818408203125,9.414560317993164,-0.5132604837417603,-1.3154542446136475
1742766210062581200,2.190581298828125,9.65503978729248,-0.5641079545021057,-1.231107234954834
1742766210064978400,2.192978515625,9.933204650878906,-0.5515456199645996,-1.0887342691421509
1742766210067375900,2.1953759765625,10.215558052062988,-0.5688936114311218,-0.9750752449035645
1742766210069773000,2.19777294921875,10.450653076171875,-0.5617151260375977,-0.8949156403541565
1742766210072170200,2.200170166015625,10.61276626586914,-0.527019202709198,-0.8045865893363953
1742766210074567400,2.2025673828125,10.756336212158203,-0.4731806814670563,-0.7806583642959595
1742766210076964600,2.204964599609375,10.813763618469238,-0.4630111753940582,-0.7758727669715881
1742766210079361800,2.20736181640625,11.00578784942627,-0.4707878530025482,-0.7148557901382446
1742766210081759000,2.209759033203125,11.650054931640625,-0.711864709854126,-0.6460621356964111
1742766210084156200,2.21215625,10.543375015258789,-0.3152543902397156,-0.46480581164360046
1742766210086553300,2.21455322265625,10.459626197814941,-0.5108676552772522,-0.5132604837417603
1742766210088950800,2.21695068359375,10.689336776733398,-0.8793623447418213,-0.5784648656845093
1742766210091348000,2.219347900390625,10.777871131896973,-1.064207911491394,-0.4504488706588745
1742766210093745200,2.2217451171875,10.778470039367676,-1.0791629552841187,-0.20757736265659332
1742766210096142300,2.224142333984375,10.444670677185059,-0.8745766878128052,-0.12023933976888657
1742766210098539500,2.22653955078125,10.15035343170166,-0.672383189201355,-0.31345975399017334
1742766210100936700,2.228936767578125,10.048060417175293,-0.5479564070701599,-0.5940182209014893
1742766210103334000,2.231333984375,9.965508460998535,-0.4815555512905121,-0.7740781307220459
1742766210105731000,2.23373095703125,9.908679008483887,-0.5156532526016235,-0.8075776696205139
1742766210108128500,2.23612841796875,9.866206169128418,-0.5688936114311218,-0.7986045479774475
1742766210110525700,2.238525634765625,9.924830436706543,-0.6675975322723389,-0.8135597109794617
1742766210112923000,2.2409228515625,9.944570541381836,-0.714257538318634,-0.966102123260498
1742766210115320000,2.243320068359375,9.977472305297852,-0.6891329288482666,-1.1988041400909424
1742766210117717200,2.24571728515625,10.203594207763672,-0.7992027401924133,-1.4997016191482544
1742766210120114400,2.248114501953125,9.953543663024902,-0.719641387462616,-1.8185452222824097
1742766210122511600,2.25051171875,9.929018020629883,-0.6849454641342163,-2.117648124694824
1742766210124908800,2.25290869140625,9.832706451416016,-0.6281159520149231,-2.331207513809204
1742766210127306200,2.25530615234375,9.607182502746582,-0.5874379873275757,-2.4400808811187744
1742766210129703400,2.257703369140625,9.429515838623047,-0.6460621356964111,-2.4496521949768066
1742766210132100600,2.2601005859375,9.253643035888672,-0.7100701332092285,-2.344966173171997
1742766210134497800,2.262497802734375,9.21117115020752,-0.7782655358314514,-2.20737886428833
1742766210136895000,2.26489501953125,9.18843936920166,-0.9026923179626465,-2.007578134536743
1742766210139292200,2.267292236328125,9.213563919067383,-0.9840483069419861,-1.7988044023513794
1742766210141689300,2.269689453125,9.170493125915527,-0.9810572862625122,-1.5984054803848267
1742766210144086500,2.27208642578125,9.117252349853516,-0.9158528447151184,-1.4267204999923706
1742766210146483700,2.274483642578125,9.068199157714844,-0.8075776696205139,-1.292722463607788
1742766210148881200,2.276881103515625,9.06700325012207,-0.7178468108177185,-1.2113664150238037
1742766210151278300,2.2792783203125,9.153144836425781,-0.6891329288482666,-1.0971091985702515
1742766210153675500,2.281675537109375,9.166903495788574,-0.6275177597999573,-0.9684949517250061
1742766210156072700,2.28407275390625,9.113064765930176,-0.519242525100708,-0.8153542876243591
1742766210158470000,2.286469970703125,8.959325790405273,-0.46899324655532837,-0.6813562512397766
1742766210160867000,2.2888671875,8.877969741821289,-0.494716078042984,-0.5479564070701599
1742766210163264300,2.29126416015625,8.673383712768555,-0.5647061467170715,-0.33798620104789734
1742766210165661400,2.293661376953125,8.554939270019531,-0.6903293132781982,-0.17647066712379456
1742766210168059000,2.296058837890625,8.426922798156738,-0.7830511927604675,-0.019740786403417587
1742766210170456000,2.2984560546875,8.206185340881348,-0.8141579031944275,0.06580262631177902
1742766210172853200,2.300853271484375,8.082356452941895,-0.8482556343078613,0.03290131315588951
1742766210175250400,2.30325048828125,8.005785942077637,-0.8871390223503113,-0.04307080805301666
1742766210177647600,2.305647705078125,8.35274600982666,-1.0396814346313477,-0.10169496387243271
1742766210180044800,2.308044921875,7.552944660186768,-0.6538388133049011,-0.2027917206287384
1742766210182442000,2.31044189453125,7.322037220001221,-0.5593222975730896,-0.4301098585128784
1742766210184839400,2.31283935546875,7.105486869812012,-0.5617151260375977,-0.5874379873275757
1742766210187236600,2.315236572265625,6.8033928871154785,-0.5024927258491516,-0.6436693072319031
1742766210189633800,2.3176337890625,6.583851337432861,-0.576670229434967,-0.5569294691085815
1742766210192017700,2.320017578125,6.4079790115356445,-0.6843472719192505,-0.3810569941997528
1742766210194428200,2.32242822265625,6.381059646606445,-0.8512466549873352,-0.24406790733337402
1742766210196825300,2.324825439453125,6.3732829093933105,-0.9846464991569519,-0.13519448041915894
1742766210199222500,2.327222412109375,6.378666877746582,-1.0516455173492432,-0.08315058797597885
1742766210201619700,2.32961962890625,6.460022926330566,-1.069591760635376,-0.0933200865983963
1742766210204017000,2.332016845703125,6.57547664642334,-1.0875378847122192,-0.07896314561367035
1742766210206414000,2.3344140625,6.69571590423584,-1.1096714735031128,-0.10348957777023315
1742766210208811500,2.3368115234375,6.830312252044678,-1.179661512374878,-0.12323036789894104
1742766210211208700,2.339208740234375,8.199007034301758,-1.8299111127853394,-0.1339980661869049
1742766210213606000,2.34160595703125,7.533204078674316,-1.409970760345459,0.02153540402650833
1742766210216003000,2.344003173828125,7.65583610534668,-1.2801600694656372,-0.08255238085985184
1742766210218400300,2.346400146484375,7.832904815673828,-1.2681959867477417,-0.12083754688501358
1742766210220797400,2.34879736328125,7.712665557861328,-1.2269197702407837,-0.06819544732570648
1742766210223194600,2.351194580078125,7.825128078460693,-1.3926228284835815,0.07357929646968842
1742766210225592000,2.353592041015625,8.086544036865234,-1.609771490097046,0.357128769159317
1742766210227989200,2.3559892578125,8.520841598510742,-1.8586249351501465,0.5455635786056519
1742766210230386400,2.358386474609375,9.016754150390625,-2.090728759765625,0.5814558863639832
1742766210232783600,2.36078369140625,9.531210899353027,-2.2510478496551514,0.49351966381073
1742766210235167500,2.36316748046875,9.944570541381836,-2.307279348373413,0.33020952343940735
1742766210237578000,2.365577880859375,10.452447891235352,-2.334198474884033,0.1908276081085205
1742766210239975200,2.36797509765625,11.056634902954102,-2.355733871459961,0.04187439754605293
1742766210242359000,2.370359130859375,11.457432746887207,-2.218146562576294,-0.03409772366285324
1742766210244769800,2.372769775390625,11.519646644592285,-1.8041882514953613,-0.08434699475765228
1742766210247167000,2.3751669921875,11.458629608154297,-1.5086746215820312,-0.27816563844680786
1742766210249550600,2.377550537109375,11.69312572479248,-1.5284154415130615,-0.544965386390686
1742766210251961300,2.37996142578125,11.991630554199219,-1.6199408769607544,-0.646660327911377
1742766210254358500,2.382358642578125,12.145967483520508,-1.695314884185791,-0.5042873620986938
1742766210256742400,2.384742431640625,12.247064590454102,-1.7240287065505981,-0.23808585107326508
1742766210259153000,2.38715283203125,12.276376724243164,-1.7437695264816284,-0.03349951654672623
1742766210261550000,2.389550048828125,12.367901802062988,-1.800000786781311,0.02273181453347206
1742766210263934000,2.391933837890625,12.52164077758789,-1.8454644680023193,-0.010767702013254166
1742766210266344700,2.3943447265625,19.40160369873047,-2.132603168487549,0.0526420995593071
1742766210268742000,2.396741943359375,63.97929000854492,-3.36969256401062,1.5966109037399292
1742766210271125800,2.399125732421875,44.9288330078125,-0.802193820476532,0.005982056725770235
1742766210273536300,2.401536376953125,7.585845947265625,1.4967105388641357,1.317248821258545
1742766210275933400,2.403933349609375,4.849653244018555,-1.3621143102645874,2.775076150894165
1742766210278317300,2.4063173828125,12.145369529724121,-4.043272018432617,0.6119644045829773
1742766210280727800,2.408727783203125,17.826528549194336,-5.672185897827148,-2.561516523361206
1742766210283125000,2.411125,15.451053619384766,-5.4143595695495605,-4.226323127746582
1742766210285508900,2.4135087890625,8.377870559692383,-2.534597396850586,-3.3571300506591797
1742766210287919600,2.415919677734375,5.80199670791626,-0.18783657252788544,-2.124826431274414
1742766210290316800,2.41831689453125,6.890132904052734,-0.22193430364131927,-2.4323041439056396
1742766210292700700,2.42070068359375,9.112466812133789,-1.4362918138504028,-3.7190446853637695
1742766210295111200,2.423111083984375,10.00857925415039,-1.8287147283554077,-4.280759811401367
1742766210297508400,2.42550830078125,10.666007041931152,-1.017547845840454,-3.434896945953369
1742766210299892200,2.427892333984375,10.147960662841797,0.26201409101486206,-1.9848463535308838
1742766210302302700,2.430302734375,9.628120422363281,0.9822536706924438,-0.7328019142150879
1742766210304700000,2.432699951171875,9.994221687316895,0.8069794178009033,0.02273181453347206
1742766210307083800,2.435083740234375,9.807581901550293,0.42771705985069275,0.3355933725833893
1742766210309494500,2.43749462890625,9.792028427124023,0.5126622319221497,0.44027936458587646
1742766210311891700,2.4398916015625,9.301499366760254,0.6269195079803467,0.3852444589138031
1742766210314275600,2.442275634765625,8.697312355041504,0.7106683254241943,0.41096729040145874
1742766210316686000,2.44468603515625,8.271389961242676,0.5964110493659973,0.4731806814670563
1742766210319083300,2.447083251953125,7.631907939910889,0.4175475537776947,0.4785645306110382
1742766210321467100,2.449467041015625,7.409973621368408,0.11186445504426956,0.372682124376297
1742766210323877600,2.451877685546875,7.015756130218506,-0.2183450609445572,0.1052841991186142
1742766210326275000,2.454275146484375,6.703492641448975,-0.5479564070701599,-0.20997019112110138
1742766210328659000,2.456658935546875,6.442076683044434,-0.7304090857505798,-0.519242525100708
1742766210331069400,2.4590693359375,5.967101573944092,-0.7674978375434875,-0.7806583642959595
1742766210333466600,2.461466552734375,6.394818305969238,-0.8099704384803772,-0.9248259663581848
1742766210335850500,2.4638505859375,14.83250904083252,-1.129412293434143,-0.4977070987224579
1742766210338261000,2.466260986328125,18.945173263549805,-1.2161520719528198,-0.7986045479774475
1742766210340658200,2.468658203125,10.64387321472168,-0.7076773047447205,-0.7962117195129395
1742766210343042000,2.4710419921875,7.025925636291504,-0.2386840581893921,0.3242274820804596
1742766210345452800,2.473452880859375,8.135597229003906,-0.06819544732570648,0.9176474809646606
1742766210347850000,2.47585009765625,9.601799011230469,-0.4043870270252228,1.098305583000183
1742766210350233900,2.47823388671875,13.193426132202148,-0.98703932762146,1.797009825706482
1742766210352644400,2.480644287109375,13.992030143737793,-1.327418327331543,1.2693923711776733
1742766210355041500,2.48304150390625,9.262616157531738,-1.0109676122665405,-0.06580262631177902
1742766210357425400,2.48542529296875,6.046064376831055,-0.4713860750198364,0.16331014037132263
1742766210359836000,2.4878359375,9.711270332336426,-0.3643072545528412,0.9224331378936768
1742766210362233000,2.490233154296875,13.418949127197266,-0.6556333899497986,0.5742774605751038
1742766210364617000,2.492616943359375,11.982657432556152,-0.8129615187644958,-0.5808576941490173
1742766210367027700,2.49502783203125,9.57487964630127,-0.6741777658462524,-1.211964726448059
1742766210369425000,2.4974248046875,9.159127235412598,-0.38344982266426086,-1.2574282884597778
1742766210371822000,2.499822021484375,11.282158851623535,-0.3242274820804596,0.047258246690034866
1742766210374219300,2.50221923828125,12.930813789367676,-0.33080771565437317,0.15314064919948578
1742766210376616400,2.504616455078125,11.630912780761719,-0.2745763957500458,-0.6245267391204834
1742766210379000300,2.507000244140625,8.591429710388184,-0.1339980661869049,-1.1455638408660889
1742766210381410800,2.509410888671875,7.194619655609131,-0.0023928226437419653,-1.0462616682052612
1742766210383808000,2.51180810546875,8.058428764343262,-0.06819544732570648,-0.19142581522464752
1742766210386205400,2.514205322265625,9.93978500366211,-0.2913261651992798,0.07896314561367035
1742766210388602600,2.5166025390625,10.225129127502441,-0.5276173949241638,-0.49351966381073
1742766210390999800,2.518999755859375,8.908478736877441,-0.6125625967979431,-0.7722834944725037
1742766210393397000,2.52139697265625,8.979066848754883,-0.5072783827781677,-0.638883650302887
1742766210395794200,2.523794189453125,9.427123069763184,-0.31405797600746155,-0.33379876613616943
1742766210398191400,2.52619140625,8.681758880615234,-0.05144568532705307,-0.29730820655822754
1742766210400575200,2.5285751953125,7.9830546379089355,0.24885354936122894,-0.11844471842050552
1742766210402986000,2.530986083984375,9.469595909118652,1.0199406147003174,1.0301101207733154
1742766210405383200,2.533383056640625,10.948958396911621,1.6277176141738892,2.3198416233062744
1742766210407766800,2.535766845703125,11.219944953918457,1.887937068939209,3.2967114448547363
1742766210410177500,2.538177490234375,9.496515274047852,1.6869399547576904,2.7038896083831787
1742766210412574700,2.54057470703125,8.106285095214844,1.2747762203216553,2.1816561222076416
1742766210414972000,2.542971923828125,8.35453987121582,0.9128618240356445,1.9507486820220947
1742766210417369000,2.545369140625,9.479764938354492,0.5970092415809631,1.9896320104599
1742766210419766300,2.547766357421875,11.843276023864746,0.19621145725250244,2.6195425987243652
1742766210422150100,2.550150146484375,11.235498428344727,0.08374879509210587,2.963510751724243
1742766210424560600,2.552560546875,8.61595630645752,0.3936193287372589,2.7900311946868896
1742766210426958000,2.5549580078125,7.823931694030762,0.44805604219436646,2.544766902923584
1742766210429355300,2.557355224609375,9.08674430847168,0.19381862878799438,1.9310078620910645
1742766210431752400,2.55975244140625,11.236695289611816,-0.09212367236614227,0.9912267923355103
1742766210434149600,2.562149658203125,10.65105152130127,-0.050847481936216354,0.035892341285943985
1742766210436533500,2.564533447265625,9.610772132873535,-0.031106693670153618,-0.5138586759567261
1742766210438944000,2.566944091796875,10.071989059448242,-0.14715859293937683,-0.9248259663581848
1742766210441341200,2.569341064453125,11.100902557373047,-0.4666004180908203,-1.319043517112732
1742766210443725000,2.57172509765625,10.359725952148438,-0.6197410821914673,-1.932802438735962
1742766210446135800,2.5741357421875,6.859025955200195,-0.8590233325958252,-2.482553482055664
1742766210448533000,2.576532958984375,15.692131042480469,-2.6285157203674316,-2.964707374572754
1742766210450916900,2.578916748046875,19.90888214111328,-1.9968105554580688,0.5670989751815796
1742766210453327400,2.581327392578125,7.963313579559326,0.017946170642971992,2.365903377532959
1742766210455724500,2.583724609375,3.486342668533325,0.4247260093688965,0.6263213157653809
1742766210458108400,2.5861083984375,6.244668960571289,0.15613168478012085,-0.5670989751815796
1742766210460519000,2.588518798828125,6.684948444366455,-0.24885354936122894,-1.2747762203216553
1742766210462916400,2.590916259765625,5.702096462249756,-0.6532405614852905,-1.5074782371520996
1742766210465300000,2.593300048828125,5.818746566772461,-1.2472587823867798,-2.101496458053589
1742766210467710700,2.595710693359375,5.399404525756836,-1.4015958309173584,-2.5633113384246826
1742766210470108000,2.59810791015625,4.849055290222168,-1.5385849475860596,-2.967698335647583
1742766210472491800,2.60049169921875,4.861617565155029,-1.3956137895584106,-2.991028308868408
1742766210474902300,2.60290234375,7.5086774826049805,-1.0336993932724,-2.2570300102233887
1742766210477299500,2.605299560546875,9.644869804382324,-0.4660021960735321,-0.7543373107910156
1742766210479683300,2.607683349609375,14.051252365112305,-0.18005990982055664,0.8943174481391907
1742766210482093800,2.61009375,25.0887451171875,-0.7226324677467346,1.1276177167892456
1742766210484491300,2.6124912109375,15.659229278564453,0.6885347366333008,-1.1808580160140991
1742766210486875100,2.614875244140625,9.270991325378418,1.9764715433120728,-0.7172485589981079
1742766210489285600,2.61728564453125,7.961519241333008,2.080559253692627,-0.6185446381568909
1742766210491682800,2.619682861328125,7.614559650421143,1.8346967697143555,-0.633499801158905
1742766210494066700,2.622066650390625,5.9407806396484375,1.5445669889450073,-0.47796630859375
1742766210496477200,2.624477294921875,5.5830535888671875,1.0079765319824219,-0.3326023519039154
1742766210498874400,2.626874267578125,6.13699197769165,0.3236292600631714,-0.04247260093688965
1742766210501258200,2.62925830078125,5.143372058868408,0.13459627330303192,0.4588237404823303
1742766210503669000,2.6316689453125,5.917450428009033,-0.12801600992679596,0.5030909776687622
1742766210506066200,2.634066162109375,7.987840175628662,-0.542572557926178,0.5635097622871399
1742766210508463400,2.63646337890625,8.820542335510254,-0.4211367964744568,0.8524430394172668
1742766210510860500,2.638860595703125,9.713065147399902,-0.08853443711996078,0.857228696346283
1742766210513257700,2.6412578125,10.176674842834473,0.35533416271209717,0.44805604219436646
1742766210515641600,2.6436416015625,11.178668975830078,0.7214360237121582,-0.29431718587875366
1742766210518052000,2.646052001953125,18.591035842895508,0.7651050686836243,-2.5393829345703125
1742766210520449300,2.64844921875,18.51207160949707,1.2975081205368042,-2.8414769172668457
1742766210522833200,2.650833251953125,12.311670303344727,1.7545372247695923,-1.1300104856491089
1742766210525244000,2.653243896484375,9.934401512145996,1.4386845827102661,-0.11665010452270508
1742766210527641000,2.65564111328125,9.326624870300293,0.9326026439666748,0.06281159073114395
1742766210530038300,2.658038330078125,10.369894981384277,0.22372891008853912,-0.39481574296951294
1742766210532435500,2.660435546875,11.261221885681152,-0.2267199456691742,-0.5808576941490173
1742766210534832600,2.66283251953125,10.812567710876465,-0.3080759048461914,-0.40378883481025696
1742766210537229800,2.665229736328125,10.16889762878418,-0.23748764395713806,-0.6975077986717224
1742766210539627000,2.667626953125,10.911869049072266,-0.2548356056213379,-1.3561322689056396
1742766210542024200,2.670024169921875,11.484352111816406,-0.09511470049619675,-1.7473586797714233
1742766210544421600,2.672421630859375,11.548958778381348,0.1052841991186142,-1.7892330884933472
1742766210546818800,2.67481884765625,11.758330345153809,0.25064817070961,-1.893320918083191
1742766210549216000,2.677216064453125,11.809776306152344,0.40378883481025696,-2.0548365116119385
1742766210551613200,2.67961328125,11.187642097473145,0.7268198728561401,-2.279761791229248
1742766210554010400,2.68201025390625,11.440085411071777,0.8111668825149536,-2.4945175647735596
1742766210556407600,2.684407470703125,11.751152038574219,0.8237292170524597,-2.428116798400879
1742766210558804700,2.6868046875,11.295319557189941,0.9409775137901306,-2.145763635635376
1742766210561202200,2.6892021484375,10.623534202575684,1.0043872594833374,-2.0440688133239746
1742766210563599400,2.691599365234375,10.26341438293457,1.0713863372802734,-2.028515338897705
1742766210565996500,2.69399658203125,10.533205032348633,0.9224331378936768,-2.0159530639648438
1742766210568393700,2.696393798828125,10.051650047302246,0.768694281578064,-1.7204394340515137
1742766210570791000,2.698791015625,8.561519622802734,0.7322037220001221,-1.3836497068405151
1742766210573174800,2.7011748046875,8.276773452758789,0.4905286431312561,-1.2891331911087036
1742766210575585300,2.703585205078125,9.060422897338867,0.2799602448940277,-1.2203395366668701
1742766210577982500,2.705982421875,8.49870777130127,0.42831525206565857,-0.771087110042572
1742766210580366300,2.708366455078125,7.7730841636657715,0.5808576941490173,-0.35892340540885925
1742766210582776800,2.71077685546875,8.223533630371094,0.5940182209014893,-0.14057832956314087
1742766210585174300,2.71317431640625,8.038089752197266,0.9038887619972229,0.1704886108636856
1742766210587558100,2.71555810546875,7.771289825439453,1.165902853012085,0.4295116662979126
1742766210589968600,2.71796875,8.642276763916016,1.280758261680603,0.20458634197711945
1742766210592365800,2.72036572265625,8.690134048461914,1.2717852592468262,0.14715859293937683
1742766210594763000,2.722762939453125,8.219346046447754,1.3471591472625732,0.2913261651992798
1742766210597160200,2.72516015625,8.692526817321777,1.0815558433532715,0.3128615617752075
1742766210599557400,2.727557373046875,8.495118141174316,0.7657032608985901,0.3164508044719696
1742766210601954800,2.729954833984375,8.266005516052246,0.625723123550415,0.2829512655735016
1742766210604352000,2.73235205078125,8.729615211486816,0.7597211599349976,0.09212367236614227
1742766210606749200,2.734749267578125,8.493324279785156,0.9044869542121887,0.09810572862625122
1742766210609146400,2.737146484375,8.23549747467041,0.8153542876243591,0.21714866161346436
1742766210611543600,2.73954345703125,7.965108394622803,0.5599204897880554,0.38285163044929504
1742766210613940700,2.741940673828125,7.133602619171143,0.3978067636489868,0.5653043389320374
1742766210616324600,2.74432470703125,6.76510763168335,0.34695929288864136,0.47976094484329224
1742766210618735000,2.746735107421875,7.112067222595215,0.14715859293937683,0.2590230405330658
1742766210621132500,2.749132568359375,7.2059855461120605,-0.09870393574237823,0.28594231605529785
1742766210623529700,2.75152978515625,7.366304397583008,-0.2350948303937912,0.3852444589138031
1742766210625927000,2.753927001953125,7.613961696624756,-0.12382857501506805,0.494716078042984
1742766210628324000,2.756323974609375,7.954938888549805,0.24586252868175507,0.4384847581386566
1742766210630721300,2.75872119140625,8.629117012023926,0.753140926361084,0.2111666053533554
1742766210633118500,2.761118408203125,9.565906524658203,0.997208833694458,0.06281159073114395
1742766210635515600,2.763515625,9.675378799438477,1.0354939699172974,0.1866401731967926
1742766210637912800,2.765912841796875,9.512666702270508,0.9810572862625122,0.28654050827026367
1742766210640310000,2.76831005859375,9.733404159545898,1.0121639966964722,0.19561325013637543
1742766210642707500,2.77070751953125,9.507282257080078,1.057029366493225,0.24406790733337402
1742766210645104600,2.773104736328125,9.606584548950195,0.7782655358314514,0.2231307178735733
1742766210647501800,2.775501708984375,10.01874828338623,0.3451646566390991,0.22492532432079315
1742766210649899000,2.77789892578125,9.416953086853027,0.15613168478012085,0.592223584651947
1742766210652296200,2.780296142578125,9.028717994689941,0.2183450609445572,0.6837490797042847
1742766210654693400,2.782693359375,9.786046028137207,0.18544375896453857,0.36251261830329895
1742766210657090600,2.785090576171875,9.969097137451172,0.12083754688501358,0.3332005441188812
1742766210659487700,2.78748779296875,9.651450157165527,0.25004997849464417,0.4061816334724426
1742766210661885200,2.78988525390625,9.671789169311523,0.5551348328590393,0.23629122972488403
1742766210664282400,2.792282470703125,9.68076229095459,1.0223335027694702,-0.013160524889826775
1742766210666679600,2.794679443359375,9.749555587768555,1.2616157531738281,-0.21236300468444824
1742766210669076700,2.79707666015625,9.789037704467773,1.1335997581481934,-0.2225325107574463
1742766210671474000,2.799473876953125,9.296713829040527,1.0043872594833374,-0.16510476171970367
1742766210673871000,2.80187109375,9.439684867858887,1.0450652837753296,-0.37926238775253296
1742766210676268300,2.804268310546875,9.409774780273438,1.1874382495880127,-0.38763725757598877
1742766210678665700,2.806665771484375,8.799605369567871,1.3597214221954346,-0.06699903309345245
1742766210681063000,2.80906298828125,8.470592498779297,1.2131611108779907,0.04247260093688965
1742766210683460000,2.811460205078125,8.959924697875977,0.7435696125030518,-0.013160524889826775
1742766210685857300,2.813857177734375,8.7236328125,0.46839502453804016,0.30927231907844543
1742766210688254500,2.81625439453125,7.996214866638184,0.37866419553756714,0.592223584651947
1742766210690651600,2.818651611328125,8.391031265258789,0.21774685382843018,0.29012975096702576
1742766210693048800,2.821048828125,8.761918067932129,0.0849452018737793,0.18364913761615753
1742766210695446000,2.823446044921875,8.461020469665527,0.004785645287483931,0.364905446767807
1742766210697843200,2.82584326171875,8.087141990661621,-0.019142581149935722,0.5318048596382141
1742766210700240600,2.82824072265625,8.054241180419922,-0.062213387340307236,0.47976094484329224
1742766210702637800,2.830637939453125,8.408378601074219,-0.07118647545576096,0.23629122972488403
1742766210705035000,2.833034912109375,8.858827590942383,-0.05144568532705307,0.05922235921025276
1742766210707432200,2.83543212890625,8.681758880615234,-0.049651071429252625,0.2877369225025177
1742766210709829400,2.837829345703125,8.552546501159668,-0.05144568532705307,0.38344982266426086
1742766210712226600,2.8402265625,9.138788223266602,-0.23808585107326508,0.02871387079358101
1742766210714623700,2.842623779296875,9.244071960449219,-0.21655045449733734,-0.22372891008853912
1742766210717007600,2.845007568359375,11.419147491455078,-0.2267199456691742,-1.200000524520874
1742766210719418400,2.84741845703125,43.50630187988281,-0.8237292170524597,-9.44626522064209
1742766210721815600,2.849815673828125,23.330020904541016,-0.16390834748744965,-5.2977094650268555
1742766210724199400,2.852199462890625,10.721041679382324,0.9523434042930603,-0.9349954724311829
1742766210726610000,2.85460986328125,3.5150563716888428,0.8967102766036987,2.3186452388763428
1742766210729007000,2.857007080078125,3.6125640869140625,-0.06281159073114395,2.575275421142578
1742766210731391000,2.859390869140625,6.107081413269043,-0.7034898400306702,2.018944025039673
1742766210733801500,2.861801513671875,6.497111797332764,-0.4163511395454407,2.4717857837677
1742766210736198700,2.86419873046875,10.405787467956543,-0.32123643159866333,2.3772692680358887
1742766210738582500,2.86658251953125,15.66102409362793,-0.19680966436862946,1.176072359085083
1742766210740993300,2.8689931640625,10.694122314453125,0.0687936544418335,1.9698911905288696
1742766210743390500,2.871390380859375,8.175676345825195,0.268594354391098,2.166700839996338
1742766210745774300,2.8737744140625,8.353343963623047,0.21176479756832123,1.5230315923690796
1742766210748184800,2.876184814453125,13.27956771850586,0.18125630915164948,0.1501496136188507
1742766210750582000,2.87858203125,13.196416854858398,0.34995031356811523,0.43190449476242065
1742766210752966000,2.8809658203125,9.010173797607422,0.6041877269744873,1.5236297845840454
1742766210755376400,2.88337646484375,5.405984401702881,0.6652047038078308,2.3988046646118164
1742766210757773600,2.885773681640625,3.9846479892730713,0.5581258535385132,2.5920250415802
1742766210760157400,2.888157470703125,5.2977094650268555,0.5162515044212341,2.4221346378326416
1742766210762568200,2.890568115234375,9.984052658081055,0.5102694034576416,1.3782658576965332
1742766210764965400,2.89296533203125,11.997014999389648,0.4624129831790924,1.0402796268463135
1742766210767362600,2.895362548828125,8.400003433227539,0.2949153780937195,2.0237298011779785
1742766210769759700,2.897759765625,6.7040910720825195,0.3026920557022095,2.5842485427856445
1742766210772157000,2.900156982421875,5.723631858825684,0.14895321428775787,2.6763720512390137
1742766210774540800,2.902540771484375,7.009175777435303,0.0323031060397625,2.2205393314361572
1742766210776951600,2.90495166015625,6.089135646820068,0.025722842663526535,2.4987051486968994
1742766210779348700,2.9073486328125,5.920441627502441,0.07776673883199692,2.1517457962036133
1742766210781746000,2.909745849609375,8.018946647644043,0.09391828626394272,1.4901303052902222
1742766210784143000,2.91214306640625,5.931807518005371,-0.07118647545576096,1.6175481081008911
1742766210786540300,2.914540283203125,6.166304111480713,-0.07178468257188797,1.2221341133117676
1742766210788937500,2.9169375,7.978867053985596,-0.14715859293937683,1.1934202909469604
1742766210791334700,2.919334716796875,11.868998527526855,-0.09511470049619675,0.09930214285850525
1742766210793731800,2.92173193359375,13.72642707824707,-0.3756731450557709,-0.5150550603866577
1742766210796115700,2.92411572265625,13.670195579528809,-0.5485545992851257,-1.306481122970581
1742766210798526200,2.926526123046875,14.026726722717285,-0.26500511169433594,-1.1108678579330444
1742766210800923600,2.928923583984375,15.701104164123535,0.35892340540885925,-1.74496591091156
1742766210803307500,2.9313076171875,19.12702751159668,1.225723385810852,-2.3814568519592285
1742766210805718000,2.933718017578125,19.92323875427246,1.5439687967300415,-3.5718860626220703
1742766210808115200,2.936115234375,17.4957218170166,1.3405789136886597,-4.1623148918151855
1742766210810499000,2.9384990234375,12.296117782592773,0.9146564602851868,-4.334000110626221
1742766210812909600,2.94090966796875,11.097312927246094,0.10588239878416061,-4.8777689933776855
1742766210815306800,2.943306640625,11.68893814086914,-0.5138586759567261,-5.0638108253479
1742766210817690600,2.945690673828125,11.525030136108398,-0.8165507316589355,-4.7264227867126465
1742766210820101400,2.948101318359375,7.609176158905029,-0.6586244106292725,-2.998206853866577
1742766210822498600,2.95049853515625,2.871387243270874,-0.3355933725833893,-1.6139588356018066
1742766210824882400,2.95288232421875,3.1280174255371094,-0.16331014037132263,-1.3567304611206055
1742766210827293000,2.95529296875,4.384249210357666,-0.18783657252788544,-1.2885349988937378
1742766210829690000,2.957690185546875,7.106683254241943,-0.28235307335853577,-1.2951152324676514
1742766210832087300,2.96008740234375,9.576674461364746,-0.40319061279296875,-1.1724830865859985
1742766210834484700,2.962484619140625,10.202397346496582,-0.20099709928035736,-0.35892340540885925
1742766210836882000,2.9648818359375,9.434301376342773,-0.0729810893535614,0.867398202419281
1742766210839265500,2.967265625,9.404391288757324,0.07417750358581543,1.8059829473495483
1742766210841676300,2.96967626953125,9.772287368774414,0.23748764395713806,2.2677977085113525
1742766210844073500,2.972073486328125,8.9850492477417,0.31405797600746155,2.417349100112915
1742766210846457300,2.974457275390625,8.545368194580078,0.2386840581893921,2.227717876434326
1742766210848867800,2.976867919921875,9.872786521911621,0.22612173855304718,1.9250258207321167
1742766210851265000,2.97926513671875,11.23490047454834,0.08195417374372482,1.4111671447753906
1742766210853649000,2.98164892578125,11.288739204406738,0.0023928226437419653,1.2490534782409668
1742766210856059400,2.984059326171875,10.487741470336914,0.054436713457107544,1.4602199792861938
1742766210858456800,2.986456787109375,9.484550476074219,0.18484555184841156,1.7635103464126587
1742766210860854000,2.98885400390625,8.959325790405273,0.4546363055706024,1.679761528968811
1742766210863251200,2.991251220703125,11.455039978027344,0.50907301902771,0.989432156085968
1742766210865648400,2.9936484375,11.766107559204102,0.503689169883728,0.8027920126914978
1742766210868045600,2.996045654296875,10.749755859375,0.5790630578994751,0.786640465259552
1742766210870442800,2.99844287109375,8.48016357421875,0.4289134442806244,1.0528420209884644
1742766210872840000,3.00083984375,8.36590576171875,0.32243284583091736,1.1808580160140991
1742766210875237400,3.0032373046875,10.774880409240723,0.07178468257188797,0.43609192967414856
1742766210877634600,3.005634521484375,12.259028434753418,-0.2566302418708801,0.031106693670153618
1742766210880031700,3.00803173828125,10.236495018005371,-0.24646073579788208,0.2925225794315338
1742766210882415600,3.01041552734375,8.100302696228027,-0.3284149169921875,0.6550351977348328
1742766210884826000,3.012826171875,8.61475944519043,-0.43609192967414856,0.576670229434967
1742766210887223300,3.015223388671875,9.981659889221191,-0.5533402562141418,0.2967100143432617
1742766210889620500,3.017620361328125,10.403992652893066,-0.6801598072052002,-0.10468599200248718
1742766210892017700,3.020017578125,11.501700401306152,-0.7178468108177185,-0.6598208546638489
1742766210894415000,3.0224150390625,10.810772895812988,-0.6107679605484009,-0.7483552694320679
1742766210896812300,3.024812255859375,11.404192924499512,-0.5461617708206177,-0.9732806086540222
1742766210899209500,3.02720947265625,12.365509033203125,-0.41515472531318665,-1.3836497068405151
1742766210901606700,3.029606689453125,12.320643424987793,-0.29012975096702576,-1.755135416984558
1742766210903990500,3.031990478515625,9.761520385742188,-0.24646073579788208,-1.7676976919174194
1742766210906401000,3.034401123046875,7.574480056762695,-0.10887342691421509,-1.714457392692566
1742766210908798200,3.036798095703125,6.3224358558654785,0.030508488416671753,-1.877767562866211
1742766210911182000,3.03918212890625,6.446264266967773,0.062213387340307236,-2.286940336227417
1742766210913592600,3.041592529296875,7.067800045013428,0.15613168478012085,-2.6255247592926025
1742766210915990000,3.043989990234375,6.39601469039917,0.22492532432079315,-2.6572296619415283
1742766210918374000,3.046373779296875,5.994020938873291,0.13998012244701385,-2.62313175201416
1742766210920784400,3.048784423828125,8.292924880981445,0.24227328598499298,-2.98085880279541
1742766210923181600,3.051181640625,11.100902557373047,0.29312077164649963,-3.248854875564575
1742766210925565400,3.0535654296875,11.3509521484375,0.23688943684101105,-2.9066812992095947
1742766210927976000,3.055975830078125,10.098309516906738,0.4295116662979126,-2.3120648860931396
1742766210930373000,3.058373046875,9.550353050231934,0.6215356588363647,-1.848455548286438
1742766210932770300,3.060770263671875,10.113862991333008,0.7645068168640137,-1.7156537771224976
1742766210935167700,3.063167724609375,11.310274124145508,0.8919246196746826,-1.8418751955032349
1742766210937565000,3.06556494140625,11.982657432556152,0.7914260625839233,-2.0865414142608643
1742766210939948800,3.06794873046875,12.427722930908203,0.7824530005455017,-2.2157537937164307
1742766210942359300,3.070359375,10.713265419006348,0.7148557901382446,-1.9411773681640625
1742766210944756500,3.072756591796875,9.311071395874023,0.5509474277496338,-1.7102699279785156
1742766210947153700,3.075153564453125,9.07717227935791,0.4576273262500763,-1.5906288623809814
1742766210949550800,3.07755078125,9.393623352050781,0.4462614357471466,-1.4913266897201538
1742766210951948000,3.079947998046875,10.198808670043945,0.4785645306110382,-1.4979069232940674
1742766210954345500,3.082345458984375,10.408180236816406,0.576670229434967,-1.4787644147872925
1742766210956742700,3.08474267578125,10.48953628540039,0.5629115104675293,-1.3938192129135132
1742766210959139800,3.087139892578125,9.2919282913208,0.5808576941490173,-0.9433703422546387
1742766210961523700,3.089523681640625,6.9481587409973145,0.6101697683334351,-0.4378865361213684
1742766210963934200,3.091934326171875,7.448258876800537,0.529412031173706,-0.47258245944976807
1742766210966331400,3.094331298828125,9.250652313232422,0.42293140292167664,-0.8536394834518433
1742766210968728600,3.096728515625,10.363913536071777,0.2745763957500458,-1.176072359085083
1742766210971125800,3.099125732421875,9.747162818908691,0.17347964644432068,-1.2323036193847656
1742766210973523000,3.10152294921875,10.221540451049805,0.1459621787071228,-1.3950155973434448
1742766210975907000,3.103906982421875,11.496315956115723,0.1136590763926506,-1.688734531402588
1742766210978317600,3.106317626953125,11.553744316101074,0.15254244208335876,-1.7174484729766846
1742766210980714800,3.10871484375,9.223134994506836,0.31106695532798767,-1.3537393808364868
1742766210983098600,3.1110986328125,8.049455642700195,0.2793620526790619,-1.3226326704025269
1742766210985509000,3.113509033203125,9.018548965454102,0.14356936514377594,-1.5637096166610718
1742766210987906300,3.11590625,8.12662410736084,0.1944168359041214,-1.3663017749786377
1742766210990290200,3.118290283203125,6.80877685546875,0.24466611444950104,-0.906281590461731
1742766210992701000,3.120700927734375,8.73320484161377,0.02392822690308094,-1.0498509407043457
1742766210995098000,3.12309814453125,11.255837440490723,-0.15732808411121368,-1.1467602252960205
1742766210997481700,3.125481689453125,10.677970886230469,-0.32183465361595154,-0.8464609980583191
1742766210999892500,3.127892578125,9.821340560913086,-0.4085744619369507,-0.5688936114311218
1742766211002289700,3.13028955078125,10.262816429138184,-0.5078766345977783,-0.6083751320838928
1742766211004686800,3.132686767578125,10.05284595489502,-0.5623133182525635,-0.7890332937240601
1742766211007084000,3.135083984375,9.245866775512695,-0.40259242057800293,-1.057627558708191
1742766211009481200,3.137481201171875,8.633902549743652,-0.13698910176753998,-1.430907964706421
1742766211011878400,3.13987841796875,9.944570541381836,0.06520441919565201,-2.0141584873199463
1742766211014275800,3.14227587890625,11.82712459564209,0.0975075215101242,-2.4699912071228027
1742766211016673000,3.144673095703125,11.829517364501953,-0.05144568532705307,-2.11405873298645
1742766211019070200,3.1470703125,10.814960479736328,-0.11246266216039658,-0.6125625967979431
1742766211021467400,3.14946728515625,11.34377384185791,0.18005990982055664,0.9780662655830383
1742766211023864600,3.151864501953125,11.903694152832031,0.6538388133049011,0.6747759580612183
1742766211026261800,3.15426171875,10.968100547790527,0.3248256742954254,-0.38644084334373474
1742766211028659000,3.156658935546875,9.589835166931152,0.542572557926178,-0.32961133122444153
1742766211031056100,3.15905615234375,8.658429145812988,0.7316055297851562,-0.07896314561367035
1742766211033440000,3.16143994140625,8.58903694152832,0.5210371017456055,-0.12801600992679596
1742766211035850800,3.163850830078125,10.009775161743164,0.2871387302875519,-0.5659025311470032
1742766211038248000,3.166248046875,11.56152057647705,-0.09092725813388824,-0.4468596279621124
1742766211040631800,3.1686318359375,11.837891578674316,-0.3206382393836975,-0.41096729040145874
1742766211043042300,3.171042236328125,10.409377098083496,-0.31345975399017334,-0.24107688665390015
1742766211045439500,3.173439453125,8.61176872253418,-0.23449662327766418,0.12023933976888657
