time,seconds_elapsed,z,y,x
1742766207941634000,0.069634033203125,7.496974945068359,6.30935525894165,-0.4727640748023987
1742766207946428400,0.074428466796875,7.503319263458252,6.301280498504639,-0.47977811098098755
1742766207951223000,0.07922314453125,7.5096354484558105,6.293214797973633,-0.4867658019065857
1742766207956017700,0.084017578125,7.515925407409668,6.285159111022949,-0.4937276542186737
1742766207961420000,0.089419921875,7.515843391418457,6.285171031951904,-0.49480339884757996
1742766207966214400,0.09421435546875,7.515806674957275,6.285130977630615,-0.49587079882621765
1742766207971008800,0.0990087890625,7.552826404571533,6.239596843719482,-0.5082795023918152
1742766207975803100,0.10380322265625,7.564244270324707,6.225417137145996,-0.5123476982116699
1742766207980597800,0.10859765625,7.576227188110352,6.210489273071289,-0.5164531469345093
1742766207985392000,0.11339208984375,7.58855676651001,6.195054054260254,-0.5207906365394592
1742766207990186500,0.1181865234375,7.601071834564209,6.179299831390381,-0.5254307985305786
1742766207994980900,0.12298095703125,7.613427639007568,6.163674354553223,-0.5300533175468445
1742766207999775200,0.127775146484375,7.625480651855469,6.148371696472168,-0.5344862341880798
1742766208004569900,0.13256982421875,7.637031078338623,6.133646011352539,-0.5387547016143799
1742766208009364200,0.1373642578125,7.647902488708496,6.119719982147217,-0.5428873896598816
1742766208014158600,0.14215869140625,7.658082962036133,6.106629848480225,-0.5467727184295654
1742766208018953000,0.146952880859375,7.667582988739014,6.094369411468506,-0.5504007935523987
1742766208023747600,0.15174755859375,7.676424503326416,6.082925796508789,-0.5537377595901489
1742766208028542000,0.1565419921875,7.684660911560059,6.072262763977051,-0.5565233826637268
1742766208033336300,0.16133642578125,7.692389011383057,6.062281608581543,-0.5585712194442749
1742766208038130700,0.166130615234375,7.6996355056762695,6.0529561042785645,-0.5598593950271606
1742766208042925300,0.17092529296875,7.7064690589904785,6.0442304611206055,-0.560117244720459
1742766208047719700,0.1757197265625,7.713128089904785,6.03578519821167,-0.5595215559005737
1742766208052514000,0.18051416015625,7.719894886016846,6.027233600616455,-0.5583837032318115
1742766208057308400,0.185308349609375,7.726688861846924,6.018641471862793,-0.5570821166038513
1742766208062102800,0.190102783203125,7.733535289764404,6.009949207305908,-0.5559211373329163
1742766208066897400,0.1948974609375,7.740592956542969,6.000930309295654,-0.5551314353942871
1742766208071691800,0.19969189453125,7.747995376586914,5.991407871246338,-0.5547155737876892
1742766208076486100,0.204486083984375,7.755559921264648,5.981607913970947,-0.5547662973403931
1742766208081280500,0.209280517578125,7.763122081756592,5.971734046936035,-0.5553634762763977
1742766208086075100,0.2140751953125,7.770694255828857,5.961778163909912,-0.5564340949058533
1742766208090869500,0.218869384765625,7.778223991394043,5.951807498931885,-0.5579730868339539
1742766208095663900,0.223663818359375,7.785837650299072,5.941670894622803,-0.5598081946372986
1742766208100458200,0.228458251953125,7.793532848358154,5.931386947631836,-0.5617759227752686
1742766208105252900,0.2332529296875,7.8013410568237305,5.9209303855896,-0.5637227892875671
1742766208110047200,0.238047119140625,7.80911922454834,5.910518646240234,-0.565277099609375
1742766208114841600,0.242841552734375,7.8167033195495605,5.900402545928955,-0.5661380887031555
1742766208119636000,0.247635986328125,7.824050426483154,5.890650272369385,-0.5662047863006592
1742766208124430300,0.252430419921875,7.831156253814697,5.881250381469727,-0.565676748752594
1742766208129225000,0.257224853515625,7.837955474853516,5.872293949127197,-0.5645689964294434
1742766208134019300,0.262019287109375,7.844432830810547,5.863788604736328,-0.562983512878418
1742766208138813700,0.266813720703125,7.850490093231201,5.855876445770264,-0.560919463634491
1742766208143608000,0.271608154296875,7.85607385635376,5.84861946105957,-0.558441698551178
1742766208148402700,0.276402587890625,7.8610053062438965,5.842278957366943,-0.5554108023643494
1742766208153197000,0.281197021484375,7.865455627441406,5.8366193771362305,-0.5518954396247864
1742766208157991400,0.285991455078125,7.869609832763672,5.831390380859375,-0.5479421615600586
1742766208162785800,0.290785888671875,7.873686790466309,5.82628059387207,-0.543711245059967
1742766208167580400,0.295580322265625,7.877864360809326,5.821009159088135,-0.5396338701248169
1742766208172374800,0.300374755859375,7.882494926452637,5.815066814422607,-0.5360815525054932
1742766208177169200,0.305169189453125,7.887754917144775,5.808166980743408,-0.5335198640823364
1742766208181963500,0.309963623046875,7.893637180328369,5.800291061401367,-0.5321925282478333
1742766208186758000,0.3147578125,7.900167465209961,5.79141902923584,-0.5319077968597412
1742766208191552500,0.319552490234375,7.907154560089111,5.781829833984375,-0.5324159264564514
1742766208196347000,0.324346923828125,7.914533615112305,5.771638870239258,-0.5333405137062073
1742766208201141200,0.329141357421875,7.922025680541992,5.761277198791504,-0.5341446399688721
1742766208205935600,0.333935546875,7.929448127746582,5.751047134399414,-0.5342366099357605
1742766208210730200,0.338730224609375,7.936711311340332,5.741106986999512,-0.5332976579666138
1742766208215524600,0.343524658203125,7.943796634674072,5.731510639190674,-0.5310219526290894
1742766208220319000,0.348319091796875,7.950462341308594,5.7226104736328125,-0.5272415280342102
1742766208225113300,0.35311328125,7.956650257110596,5.714497089385986,-0.5218693017959595
1742766208229908000,0.357907958984375,7.962442874908447,5.707024097442627,-0.5152508020401001
1742766208234702300,0.362702392578125,7.9679975509643555,5.699934959411621,-0.5077962279319763
1742766208239496700,0.36749658203125,7.973250865936279,5.693259239196777,-0.5001790523529053
1742766208244291000,0.372291015625,7.977993488311768,5.68721342086792,-0.4932851791381836
1742766208249085400,0.37708544921875,7.982241630554199,5.681732654571533,-0.48770225048065186
1742766208253880000,0.381880126953125,7.986093044281006,5.676645755767822,-0.48385900259017944
1742766208258674400,0.38667431640625,7.989563941955566,5.671914577484131,-0.482046514749527
1742766208263468800,0.39146875,7.99268102645874,5.667491912841797,-0.482386976480484
1742766208268263200,0.39626318359375,7.995577335357666,5.663219451904297,-0.48457616567611694
1742766208273057800,0.401057861328125,7.9984517097473145,5.658860683441162,-0.48802661895751953
1742766208277852200,0.40585205078125,8.00154972076416,5.654120922088623,-0.4921639561653137
1742766208282646500,0.410646484375,8.005097389221191,5.648722171783447,-0.4964577257633209
1742766208287441000,0.41544091796875,8.009263038635254,5.642433166503906,-0.5007691383361816
1742766208292235500,0.420235595703125,8.014179229736328,5.635073184967041,-0.5049740672111511
1742766208297030000,0.42502978515625,8.02004623413086,5.626363754272461,-0.5089290738105774
1742766208301824300,0.42982421875,8.02685260772705,5.616307735443115,-0.5126843452453613
1742766208306618600,0.43461865234375,8.034685134887695,5.604759693145752,-0.5163494944572449
1742766208311413000,0.4394130859375,8.043506622314453,5.591738700866699,-0.5201659798622131
1742766208316207600,0.44420751953125,8.053218841552734,5.577366828918457,-0.524174690246582
1742766208321002000,0.449001953125,8.063592910766602,5.56195592880249,-0.5284096598625183
1742766208325796400,0.45379638671875,8.07427978515625,5.546006679534912,-0.5328333973884583
1742766208330590700,0.4585908203125,8.084922790527344,5.530048370361328,-0.537308394908905
1742766208335385300,0.46338525390625,8.095355987548828,5.5143351554870605,-0.5416824221611023
1742766208340179700,0.4681796875,8.105475425720215,5.499025821685791,-0.5459820032119751
1742766208344974000,0.47297412109375,8.115243911743164,5.484165191650391,-0.5503215193748474
1742766208349768400,0.4777685546875,8.124699592590332,5.469722747802734,-0.5545315146446228
1742766208354563000,0.48256298828125,8.133879661560059,5.455667495727539,-0.5583950877189636
1742766208359357400,0.487357421875,8.142786026000977,5.442030906677246,-0.5616456866264343
1742766208364151800,0.49215185546875,8.151321411132812,5.4289727210998535,-0.5641958117485046
1742766208368946200,0.4969462890625,8.159513473510742,5.416478633880615,-0.565883457660675
1742766208373740500,0.501740478515625,8.167400360107422,5.4045257568359375,-0.5663840770721436
1742766208378535200,0.50653515625,8.175047874450684,5.393029689788818,-0.5656325221061707
1742766208383329500,0.51132958984375,8.182409286499023,5.382073402404785,-0.5635286569595337
1742766208388124000,0.5161240234375,8.18938159942627,5.37181282043457,-0.5601561069488525
1742766208392918300,0.520918212890625,8.195891380310059,5.362316608428955,-0.5559102892875671
1742766208397713000,0.525712890625,8.201750755310059,5.353860378265381,-0.5509700775146484
1742766208402507300,0.53050732421875,8.206911087036133,5.346506118774414,-0.5455183982849121
1742766208407301600,0.535301513671875,8.211438179016113,5.34013557434082,-0.5397602319717407
1742766208412096000,0.540095947265625,8.215387344360352,5.334644317626953,-0.5339523553848267
1742766208416890600,0.544890625,8.218681335449219,5.330088138580322,-0.5287110209465027
1742766208421685000,0.54968505859375,8.221307754516602,5.326410293579102,-0.5249314904212952
1742766208426479400,0.554479248046875,8.223308563232422,5.32351016998291,-0.5230268836021423
1742766208431273700,0.559273681640625,8.224690437316895,5.3213582038879395,-0.5231980681419373
1742766208436068000,0.564068115234375,8.22564697265625,5.319623947143555,-0.5257683396339417
1742766208440862700,0.56886279296875,8.22629165649414,5.318134307861328,-0.530752956867218
1742766208445657000,0.573656982421875,8.226737022399902,5.316719055175781,-0.5379518270492554
1742766208450451500,0.578451416015625,8.227161407470703,5.315161228179932,-0.5467983484268188
1742766208455245800,0.583245849609375,8.227791786193848,5.313162803649902,-0.556637167930603
1742766208460040400,0.58804052734375,8.228870391845703,5.310405254364014,-0.56691575050354
1742766208464834800,0.592834716796875,8.23066520690918,5.306545257568359,-0.5769122838973999
1742766208469629200,0.597629150390625,8.23345947265625,5.301171779632568,-0.5863726735115051
1742766208474423600,0.602423583984375,8.237197875976562,5.294389724731445,-0.5950801372528076
1742766208479218200,0.60721826171875,8.241669654846191,5.286487102508545,-0.6033619046211243
1742766208484012500,0.612012451171875,8.246623992919922,5.277830600738525,-0.6114067435264587
1742766208488807000,0.616806884765625,8.251667976379395,5.269012928009033,-0.6193403005599976
1742766208493601300,0.621601318359375,8.256513595581055,5.260456085205078,-0.6274631023406982
1742766208498395600,0.626395751953125,8.260812759399414,5.252695083618164,-0.6358258128166199
1742766208503190300,0.631190185546875,8.264419555664062,5.245953559875488,-0.6445526480674744
1742766208507984600,0.635984619140625,8.267388343811035,5.240176677703857,-0.6534233689308167
1742766208512779000,0.640779052734375,8.269701957702637,5.235410690307617,-0.6622780561447144
1742766208517573400,0.645573486328125,8.271363258361816,5.231687068939209,-0.6709024906158447
1742766208522368000,0.650367919921875,8.272444725036621,5.228903770446777,-0.6792104244232178
1742766208527162400,0.655162353515625,8.273185729980469,5.226722717285156,-0.6869378685951233
1742766208531956700,0.659956787109375,8.273762702941895,5.22489070892334,-0.6938831806182861
1742766208536751000,0.664751220703125,8.274338722229004,5.223179340362549,-0.6998738646507263
1742766208541545700,0.669545654296875,8.274989128112793,5.221490859985352,-0.7047751545906067
1742766208546340000,0.674340087890625,8.27593994140625,5.219488620758057,-0.7084202170372009
1742766208551134500,0.679134521484375,8.277181625366211,5.217194080352783,-0.7108213305473328
1742766208555928800,0.6839287109375,8.278746604919434,5.214545249938965,-0.7120265364646912
1742766208560723200,0.68872314453125,8.280556678771973,5.211641311645508,-0.7122439742088318
1742766208565517800,0.693517822265625,8.282503128051758,5.208634376525879,-0.7115956544876099
1742766208570312200,0.698312255859375,8.284475326538086,5.205666542053223,-0.7103594541549683
1742766208575106600,0.7031064453125,8.286303520202637,5.202933311462402,-0.7090623378753662
1742766208579901000,0.70790087890625,8.287879943847656,5.200562000274658,-0.7080264091491699
1742766208584695600,0.712695556640625,8.2892484664917,5.198458671569824,-0.7074562311172485
1742766208589490000,0.717489990234375,8.29049301147461,5.19647216796875,-0.7074679732322693
1742766208594284300,0.7222841796875,8.29163646697998,5.1945600509643555,-0.7081130743026733
1742766208599078700,0.72707861328125,8.292696952819824,5.1927080154418945,-0.7092748284339905
1742766208603873300,0.731873291015625,8.29367733001709,5.1909356117248535,-0.7107783555984497
1742766208608667600,0.736667724609375,8.294677734375,5.189094066619873,-0.7125606536865234
1742766208613462000,0.7414619140625,8.295681953430176,5.187199115753174,-0.7146559357643127
1742766208618256400,0.74625634765625,8.296758651733398,5.185162544250488,-0.7169278264045715
1742766208623050800,0.75105078125,8.297954559326172,5.182999610900879,-0.7187280654907227
1742766208627845400,0.755845458984375,8.299195289611816,5.180866718292236,-0.7197964191436768
1742766208632639700,0.7606396484375,8.300546646118164,5.17866325378418,-0.7200596928596497
1742766208637434000,0.76543408203125,8.302107810974121,5.176224708557129,-0.7196050882339478
1742766208642228500,0.770228515625,8.304024696350098,5.173295021057129,-0.7185438275337219
1742766208647023000,0.775023193359375,8.30632495880127,5.169832706451416,-0.7168682813644409
1742766208651817500,0.7798173828125,8.308895111083984,5.166001319885254,-0.714702844619751
1742766208656611800,0.78461181640625,8.311702728271484,5.161764144897461,-0.7126629948616028
1742766208661406200,0.78940625,8.314629554748535,5.157228469848633,-0.7113668322563171
1742766208666200800,0.794200927734375,8.317724227905273,5.152309417724609,-0.710821270942688
1742766208670995200,0.7989951171875,8.321011543273926,5.146965980529785,-0.711066722869873
1742766208675789600,0.80378955078125,8.324539184570312,5.14113712310791,-0.7119426131248474
1742766208680584000,0.808583984375,8.32833480834961,5.134833335876465,-0.7130527496337891
1742766208685378300,0.81337841796875,8.33228588104248,5.128298759460449,-0.713910698890686
1742766208690173000,0.8181728515625,8.336360931396484,5.121624946594238,-0.7142488360404968
1742766208694967300,0.82296728515625,8.340332984924316,5.115212440490723,-0.7138350605964661
1742766208699761700,0.82776171875,8.343894004821777,5.109594821929932,-0.7124424576759338
1742766208704556000,0.83255615234375,8.346986770629883,5.10491943359375,-0.7097359895706177
1742766208709350700,0.8373505859375,8.34957504272461,5.1011962890625,-0.7060443758964539
1742766208714145000,0.84214501953125,8.351602554321289,5.098474025726318,-0.7017181515693665
1742766208718939400,0.846939453125,8.353130340576172,5.096594333648682,-0.6971763372421265
1742766208723733800,0.851733642578125,8.354357719421387,5.095207691192627,-0.6925801634788513
1742766208728528400,0.8565283203125,8.35551643371582,5.093908786773682,-0.6881553530693054
1742766208733322800,0.86132275390625,8.356902122497559,5.0922040939331055,-0.683922290802002
1742766208738117000,0.8661171875,8.358820915222168,5.089527130126953,-0.6803934574127197
1742766208742911500,0.870911376953125,8.361245155334473,5.08589506149292,-0.6777667999267578
1742766208747705900,0.875705810546875,8.364485740661621,5.080801010131836,-0.6759877800941467
1742766208752500500,0.88050048828125,8.368535995483398,5.074285984039307,-0.6747907996177673
1742766208757294800,0.885294921875,8.373228073120117,5.066671848297119,-0.6738014221191406
1742766208762089200,0.890089111328125,8.37866497039795,5.057824611663818,-0.6726787090301514
1742766208766883600,0.894883544921875,8.384769439697266,5.047856330871582,-0.6714999079704285
1742766208771678200,0.89967822265625,8.391470909118652,5.0368194580078125,-0.6706487536430359
1742766208776472600,0.90447265625,8.398701667785645,5.024823188781738,-0.6701307892799377
1742766208781267000,0.909266845703125,8.406301498413086,5.01212215423584,-0.6699537038803101
1742766208786061300,0.914061279296875,8.414155960083008,4.998871326446533,-0.6703559756278992
1742766208790856000,0.91885595703125,8.42212200164795,4.985296726226807,-0.6714124083518982
1742766208795650300,0.923650390625,8.430208206176758,4.971364498138428,-0.6732314825057983
1742766208800444700,0.928444580078125,8.43825912475586,4.95733118057251,-0.6758468151092529
1742766208805239000,0.933239013671875,8.446279525756836,4.943241596221924,-0.6788397431373596
1742766208810033700,0.93803369140625,8.454244613647461,4.929269313812256,-0.6813005208969116
1742766208814828000,0.942828125,8.462327003479004,4.915233612060547,-0.6823557019233704
1742766208819622400,0.947622314453125,8.470748901367188,4.900935649871826,-0.6807019114494324
1742766208824416800,0.952416748046875,8.479866027832031,4.885801315307617,-0.6759644746780396
1742766208829211400,0.95721142578125,8.490009307861328,4.8693389892578125,-0.667384922504425
1742766208834005800,0.962005859375,8.501166343688965,4.851587772369385,-0.6545004844665527
1742766208838800100,0.966800048828125,8.513165473937988,4.832743167877197,-0.637749195098877
1742766208843594500,0.971594482421875,8.525789260864258,4.812978744506836,-0.6182735562324524
1742766208848388900,0.976388916015625,8.539108276367188,4.7921366691589355,-0.5959551930427551
1742766208853183500,0.98118359375,8.553193092346191,4.770047664642334,-0.5706503391265869
1742766208857977900,0.985977783203125,8.567538261413574,4.747387409210205,-0.5438034534454346
1742766208862772200,0.990772216796875,8.581755638122559,4.724724292755127,-0.516289234161377
1742766208867566600,0.995566650390625,8.59570598602295,4.70224142074585,-0.488735169172287
1742766208872361200,1.000361328125,8.609335899353027,4.6800336837768555,-0.4612295627593994
1742766208877155600,1.005155517578125,8.622790336608887,4.65795373916626,-0.4325087070465088
1742766208881950000,1.009949951171875,8.636064529418945,4.636106491088867,-0.4012797474861145
1742766208886744300,1.014744384765625,8.64939022064209,4.614075183868408,-0.3666895925998688
1742766208891539000,1.0195390625,8.663118362426758,4.591141223907471,-0.32850295305252075
1742766208896333300,1.024333251953125,8.67717170715332,4.5672125816345215,-0.2887440621852875
1742766208901127700,1.029127685546875,8.69128704071045,4.54261589050293,-0.2495569884777069
1742766208905922000,1.033922119140625,8.705350875854492,4.517570495605469,-0.21102002263069153
1742766208910716400,1.03871630859375,8.719388961791992,4.492080211639404,-0.1719641387462616
1742766208915511000,1.043510986328125,8.733330726623535,4.466241359710693,-0.13317246735095978
1742766208920305400,1.048305419921875,8.74725341796875,4.4398908615112305,-0.09499796479940414
1742766208925099800,1.053099853515625,8.76105785369873,4.41325569152832,-0.056046660989522934
1742766208929894100,1.05789404296875,8.774486541748047,4.3868303298950195,-0.014676438644528389
1742766208934688800,1.062688720703125,8.787213325500488,4.361219882965088,0.027416791766881943
1742766208939483100,1.067483154296875,8.799199104309082,4.33656120300293,0.06663187593221664
1742766208944277500,1.072277587890625,8.8108549118042,4.3121819496154785,0.10013532638549805
1742766208949072000,1.07707177734375,8.822980880737305,4.286628246307373,0.12628616392612457
1742766208953866500,1.081866455078125,8.8359956741333,4.259121894836426,0.14550091326236725
1742766208958660900,1.086660888671875,8.850043296813965,4.229429244995117,0.15739426016807556
1742766208963455200,1.091455322265625,8.86491584777832,4.198034286499023,0.16085614264011383
1742766208968249600,1.09624951171875,8.880026817321777,4.166161060333252,0.15597422420978546
1742766208973044000,1.1010439453125,8.894676208496094,4.135217666625977,0.14428992569446564
1742766208977838600,1.105838623046875,8.908456802368164,4.105989456176758,0.127866730093956
1742766208982633000,1.110633056640625,8.921058654785156,4.07909631729126,0.10858342051506042
1742766208987427300,1.11542724609375,8.932428359985352,4.054638862609863,0.0880131721496582
1742766208992221700,1.1202216796875,8.94276237487793,4.0321946144104,0.06721071153879166
1742766208997016300,1.125016357421875,8.952150344848633,4.011600971221924,0.04663706570863724
1742766209001810700,1.129810791015625,8.96061897277832,3.99283504486084,0.02601868472993374
1742766209006605000,1.13460498046875,8.968274116516113,3.975693464279175,0.004442349076271057
1742766209011399400,1.1393994140625,8.975377082824707,3.959594964981079,-0.018096987158060074
1742766209016194000,1.144194091796875,8.982115745544434,3.94411563873291,-0.04073207080364227
1742766209020988400,1.148988525390625,8.9884033203125,3.9294729232788086,-0.06289992481470108
1742766209025782800,1.15378271484375,8.993916511535645,3.9164376258850098,-0.08429171144962311
1742766209030577200,1.1585771484375,8.9986572265625,3.9050519466400146,-0.10408610850572586
1742766209035371500,1.16337158203125,9.00269603729248,3.8952226638793945,-0.12175628542900085
1742766209040166100,1.168166259765625,9.006060600280762,3.8869235515594482,-0.13711418211460114
1742766209044960500,1.17296044921875,9.008735656738281,3.8802382946014404,-0.15017400681972504
1742766209049755000,1.1777548828125,9.010785102844238,3.875044107437134,-0.16094359755516052
1742766209054549200,1.18254931640625,9.01247501373291,3.870753049850464,-0.16931691765785217
1742766209059344000,1.18734375,9.013785362243652,3.8674135208129883,-0.1757688820362091
1742766209064138200,1.19213818359375,9.014748573303223,3.8649532794952393,-0.18040843307971954
1742766209068932600,1.1969326171875,9.01533031463623,3.8634862899780273,-0.18275955319404602
1742766209073727200,1.201727294921875,9.015552520751953,3.8630237579345703,-0.1815551072359085
1742766209078521600,1.206521484375,9.01522445678711,3.8640122413635254,-0.1767386496067047
1742766209083316000,1.21131591796875,9.014289855957031,3.8665547370910645,-0.1686469316482544
1742766209088110300,1.2161103515625,9.012906074523926,3.870279312133789,-0.15676100552082062
1742766209092904700,1.22090478515625,9.011261940002441,3.8747174739837646,-0.14081484079360962
1742766209097699300,1.22569921875,9.008970260620117,3.880763053894043,-0.11940719932317734
1742766209102493700,1.23049365234375,9.00583267211914,3.8886284828186035,-0.09822705388069153
1742766209107288000,1.2352880859375,9.001643180847168,3.8986926078796387,-0.08197446167469025
1742766209112082400,1.24008251953125,8.996318817138672,3.9111852645874023,-0.07064076513051987
1742766209116877000,1.244876953125,8.989742279052734,3.926407814025879,-0.06295850872993469
1742766209121671400,1.24967138671875,8.982240676879883,3.9436278343200684,-0.05698268860578537
1742766209126465800,1.2544658203125,8.97397232055664,3.962491273880005,-0.05092332884669304
1742766209131260200,1.25926025390625,8.965091705322266,3.982640266418457,-0.042677659541368484
1742766209136054800,1.2640546875,8.9558687210083,4.003451824188232,-0.03015986643731594
1742766209140849200,1.26884912109375,8.946582794189453,4.024252891540527,-0.012445616535842419
1742766209145643500,1.2736435546875,8.937525749206543,4.044330596923828,0.011780495755374432
1742766209150438000,1.27843798828125,8.928438186645508,4.064144611358643,0.04285800829529762
1742766209155232300,1.283232177734375,8.919268608093262,4.083731651306152,0.07675417512655258
1742766209160027000,1.28802685546875,8.910520553588867,4.1019487380981445,0.11290477216243744
1742766209164821200,1.2928212890625,8.902917861938477,4.117224216461182,0.1504201740026474
1742766209169615600,1.29761572265625,8.896889686584473,4.128777980804443,0.1861743927001953
1742766209174410000,1.302409912109375,8.892465591430664,4.1368021965026855,0.216875359416008
1742766209179204600,1.30720458984375,8.889617919921875,4.141548156738281,0.24160358309745789
1742766209183999000,1.3119990234375,8.888298988342285,4.1431884765625,0.26123863458633423
1742766209188793300,1.31679345703125,8.888413429260254,4.141915798187256,0.2770390212535858
1742766209193587700,1.321587646484375,8.889747619628906,4.138160705566406,0.29004064202308655
1742766209198382300,1.32638232421875,8.89197826385498,4.132546424865723,0.30149009823799133
1742766209203176700,1.3311767578125,8.894661903381348,4.125921726226807,0.3128249943256378
1742766209207971000,1.33597119140625,8.897401809692383,4.119083404541016,0.32480722665786743
1742766209212765400,1.340765380859375,8.900169372558594,4.112102031707764,0.3372141420841217
1742766209217559800,1.345559814453125,8.903011322021484,4.104874134063721,0.3500165045261383
1742766209222354400,1.3503544921875,8.905730247497559,4.0978240966796875,0.36321312189102173
1742766209227148800,1.355148681640625,8.908286094665527,4.091012954711914,0.3770354986190796
1742766209231943200,1.359943115234375,8.910469055175781,4.084996223449707,0.3904615342617035
1742766209236737500,1.364737548828125,8.912046432495117,4.080585956573486,0.4004579484462738
1742766209241532200,1.3695322265625,8.912822723388672,4.078554630279541,0.403849333524704
1742766209246326500,1.374326416015625,8.912949562072754,4.0787177085876465,0.39936959743499756
1742766209251121000,1.379120849609375,8.912510871887207,4.080872058868408,0.3869688808917999
1742766209255915300,1.383915283203125,8.911564826965332,4.084747314453125,0.3673537075519562
1742766209260710000,1.3887099609375,8.909921646118164,4.09049654006958,0.3423944413661957
1742766209265504300,1.393504150390625,8.907061576843262,4.099086761474609,0.31281042098999023
1742766209270298600,1.398298583984375,8.902528762817383,4.111239433288574,0.28073179721832275
1742766209275093000,1.403093017578125,8.89649486541748,4.126492023468018,0.24607543647289276
1742766209279887600,1.4078876953125,8.890036582946777,4.142645835876465,0.20457296073436737
1742766209284682000,1.412681884765625,8.883794784545898,4.158190727233887,0.15408436954021454
1742766209289476400,1.417476318359375,8.877654075622559,4.1730146408081055,0.09657031297683716
1742766209294270700,1.422270751953125,8.871441841125488,4.187171936035156,0.03497406095266342
1742766209299065300,1.4270654296875,8.865202903747559,4.200412273406982,-0.028488440439105034
1742766209303859700,1.431859619140625,8.858967781066895,4.212625980377197,-0.0926390141248703
1742766209308654000,1.436654052734375,8.852746963500977,4.223785400390625,-0.15689747035503387
1742766209313448400,1.441448486328125,8.846715927124023,4.23354434967041,-0.22095774114131927
1742766209318243000,1.4462431640625,8.840950012207031,4.241612911224365,-0.28712284564971924
1742766209323037400,1.451037353515625,8.83515453338623,4.248264789581299,-0.35831305384635925
1742766209327831800,1.455831787109375,8.828897476196289,4.2541823387146,-0.4342969059944153
1742766209332626200,1.460626220703125,8.821409225463867,4.260837554931641,-0.5139189958572388
1742766209337420500,1.465420654296875,8.812204360961914,4.26927375793457,-0.5953685641288757
1742766209342215200,1.470215087890625,8.801114082336426,4.280160427093506,-0.675807535648346
1742766209347009500,1.475009521484375,8.7882080078125,4.2938079833984375,-0.752809464931488
1742766209351804000,1.479803955078125,8.773436546325684,4.310873508453369,-0.8241869807243347
1742766209356585000,1.4845849609375,8.757015228271484,4.331615447998047,-0.887633204460144
1742766209361393000,1.489392822265625,8.738920211791992,4.356270790100098,-0.9435482621192932
1742766209366187300,1.494187255859375,8.719677925109863,4.384052276611328,-0.9916710257530212
1742766209370981600,1.498981689453125,8.69958209991455,4.414118766784668,-1.0338935852050781
1742766209375776000,1.50377587890625,8.678916931152344,4.445915222167969,-1.0706806182861328
1742766209380570600,1.508570556640625,8.658011436462402,4.478579521179199,-1.1032999753952026
1742766209385351700,1.5133515625,8.637228965759277,4.510838985443115,-1.1343377828598022
1742766209390159400,1.518159423828125,8.61711311340332,4.541199684143066,-1.165750503540039
1742766209394953700,1.52295361328125,8.598433494567871,4.568234920501709,-1.197614312171936
1742766209399734800,1.52773486328125,8.581279754638672,4.5910725593566895,-1.2328027486801147
1742766209404542700,1.532542724609375,8.566038131713867,4.609385967254639,-1.2699089050292969
1742766209409337000,1.537337158203125,8.553021430969238,4.622842788696289,-1.308152198791504
1742766209414118100,1.5421181640625,8.542630195617676,4.631348609924316,-1.3454362154006958
1742766209418925800,1.54692578125,8.534120559692383,4.636796474456787,-1.3802193403244019
1742766209423720400,1.551720458984375,8.526671409606934,4.641079425811768,-1.4115149974822998
1742766209428514800,1.556514892578125,8.519332885742188,4.646012306213379,-1.4393208026885986
1742766209433309200,1.56130908203125,8.51131820678711,4.652729511260986,-1.4648149013519287
1742766209438103600,1.566103515625,8.501771926879883,4.661975383758545,-1.4906275272369385
1742766209442898200,1.570898193359375,8.490036964416504,4.6739678382873535,-1.5196741819381714
1742766209447692500,1.575692626953125,8.475955963134766,4.688162326812744,-1.5541585683822632
1742766209452487000,1.58048681640625,8.459709167480469,4.703756809234619,-1.595023274421692
1742766209457281300,1.58528125,8.441717147827148,4.720063209533691,-1.6415058374404907
1742766209462076000,1.590075927734375,8.422840118408203,4.736616611480713,-1.6900674104690552
1742766209466870300,1.594870361328125,8.404083251953125,4.752931594848633,-1.7369900941848755
1742766209471651300,1.5996513671875,8.386665344238281,4.768352031707764,-1.7784209251403809
1742766209476459000,1.604458984375,8.371658325195312,4.78137731552124,-1.8138008117675781
1742766209481253600,1.609253662109375,8.36029052734375,4.790335178375244,-1.8423738479614258
1742766209486048000,1.614048095703125,8.353238105773926,4.793858051300049,-1.8650599718093872
1742766209490842400,1.61884228515625,8.350408554077148,4.791309356689453,-1.8841761350631714
1742766209495636700,1.62363671875,8.351251602172852,4.782860279083252,-1.9018311500549316
1742766209500431000,1.62843115234375,8.355298042297363,4.7689619064331055,-1.9188783168792725
1742766209505225700,1.633225830078125,8.362332344055176,4.749967575073242,-1.935280203819275
1742766209510020000,1.63802001953125,8.372222900390625,4.7259440422058105,-1.9512656927108765
1742766209514814500,1.642814453125,8.384834289550781,4.697206020355225,-1.9664477109909058
1742766209519608800,1.64760888671875,8.399778366088867,4.664346218109131,-1.9808355569839478
1742766209524403500,1.652403564453125,8.417191505432129,4.6267547607421875,-1.9950274229049683
1742766209529197800,1.65719775390625,8.437273979187012,4.584806442260742,-2.0070042610168457
1742766209533992200,1.6619921875,8.460840225219727,4.537793159484863,-2.0146279335021973
1742766209538786600,1.66678662109375,8.489855766296387,4.484437942504883,-2.0120344161987305
1742766209543567600,1.671567626953125,8.52756118774414,4.423331260681152,-1.9877008199691772
1742766209548375600,1.67637548828125,8.57298755645752,4.356073379516602,-1.940264344215393
1742766209553170000,1.681169921875,8.622577667236328,4.285234451293945,-1.877241611480713
1742766209557951000,1.685950927734375,8.673774719238281,4.213009834289551,-1.8034095764160156
1742766209562758700,1.690758544921875,8.723945617675781,4.141356945037842,-1.725699543952942
1742766209567553300,1.69555322265625,8.770150184631348,4.073205471038818,-1.6521397829055786
1742766209572334300,1.700334228515625,8.810617446899414,4.011178016662598,-1.5873199701309204
1742766209577142000,1.70514208984375,8.844634056091309,3.9572668075561523,-1.5325149297714233
1742766209581936600,1.7099365234375,8.872794151306152,3.9105372428894043,-1.4890704154968262
1742766209586731000,1.71473095703125,8.89687728881836,3.868220806121826,-1.455520510673523
1742766209591525400,1.719525390625,8.918498039245605,3.8280234336853027,-1.4292433261871338
1742766209596319700,1.72431982421875,8.938596725463867,3.7889962196350098,-1.407516360282898
1742766209601114400,1.7291142578125,8.957290649414062,3.7512121200561523,-1.3897730112075806
1742766209605908700,1.73390869140625,8.97421646118164,3.715593099594116,-1.376190185546875
1742766209610703000,1.738703125,8.989377975463867,3.6823551654815674,-1.3665471076965332
1742766209615497500,1.74349755859375,9.002531051635742,3.652251720428467,-1.36073899269104
1742766209620291800,1.748291748046875,9.013761520385742,3.625378131866455,-1.3582531213760376
1742766209625086500,1.75308642578125,9.023680686950684,3.6009316444396973,-1.3574222326278687
1742766209629880800,1.757880859375,9.033223152160645,3.576514482498169,-1.3585017919540405
1742766209634675200,1.76267529296875,9.04263973236084,3.5509867668151855,-1.3628183603286743
1742766209639469600,1.767469482421875,9.051915168762207,3.5241785049438477,-1.370809555053711
1742766209644264200,1.77226416015625,9.061565399169922,3.4950759410858154,-1.381516933441162
1742766209649058600,1.77705859375,9.072510719299316,3.462397813796997,-1.3919243812561035
1742766209653853000,1.78185302734375,9.085628509521484,3.424978733062744,-1.398921012878418
1742766209658647300,1.786647216796875,9.10046100616455,3.383650779724121,-1.4030786752700806
1742766209663442000,1.79144189453125,9.116182327270508,3.3396048545837402,-1.4065443277359009
1742766209668236300,1.796236328125,9.132444381713867,3.2932207584381104,-1.4104117155075073
1742766209673030700,1.80103076171875,9.149240493774414,3.244417905807495,-1.4146596193313599
1742766209677825000,1.805824951171875,9.166528701782227,3.1932153701782227,-1.4192399978637695
1742766209682619400,1.810619384765625,9.184174537658691,3.1396424770355225,-1.424675703048706
1742766209687414000,1.8154140625,9.20162296295166,3.0849642753601074,-1.4315180778503418
1742766209692208400,1.82020849609375,9.218889236450195,3.0297160148620605,-1.4384084939956665
1742766209697002800,1.825002685546875,9.236551284790039,2.9728517532348633,-1.4437347650527954
1742766209701797000,1.829797119140625,9.254816055297852,2.9145853519439697,-1.4455760717391968
1742766209706591700,1.834591796875,9.27368450164795,2.8553128242492676,-1.4429395198822021
1742766209711386000,1.83938623046875,9.293314933776855,2.7943780422210693,-1.4359157085418701
1742766209716180500,1.844180419921875,9.313743591308594,2.729426383972168,-1.4284679889678955
1742766209720974800,1.848974853515625,9.33452033996582,2.663560628890991,-1.4171342849731445
1742766209725769500,1.85376953125,9.355199813842773,2.5988008975982666,-1.4009196758270264
1742766209730550500,1.858550537109375,9.374665260314941,2.537569761276245,-1.3829315900802612
1742766209735358200,1.863358154296875,9.392485618591309,2.4822299480438232,-1.362303614616394
1742766209740152600,1.868152587890625,9.408466339111328,2.4334163665771484,-1.339911699295044
1742766209744947200,1.872947265625,9.42289924621582,2.389605760574341,-1.3171401023864746
1742766209749741600,1.877741455078125,9.435904502868652,2.350191116333008,-1.2947678565979004
1742766209754536000,1.882535888671875,9.447534561157227,2.3153300285339355,-1.2725735902786255
1742766209759330300,1.887330322265625,9.45775318145752,2.285217046737671,-1.2509195804595947
1742766209764125000,1.892125,9.466588020324707,2.2598233222961426,-1.230055332183838
1742766209768919300,1.896919189453125,9.474405288696289,2.2385990619659424,-1.2084823846817017
1742766209773713700,1.901713623046875,9.481584548950195,2.2204301357269287,-1.185478687286377
1742766209778508000,1.906508056640625,9.488421440124512,2.2038514614105225,-1.1614669561386108
1742766209783302700,1.911302734375,9.495146751403809,2.187161445617676,-1.1378183364868164
1742766209788083700,1.916083740234375,9.502031326293945,2.168895959854126,-1.115077257156372
1742766209792891400,1.920891357421875,9.509529113769531,2.1474995613098145,-1.0923383235931396
1742766209797685800,1.925685791015625,9.51789379119873,2.1213982105255127,-1.0702697038650513
1742766209802466800,1.930466796875,9.527174949645996,2.090153455734253,-1.0489498376846313
1742766209807274800,1.935274658203125,9.537508010864258,2.053638458251953,-1.026942253112793
1742766209812069000,1.940069091796875,9.54875659942627,2.0119853019714355,-1.004618525505066
1742766209816863500,1.944863525390625,9.560447692871094,1.9658478498458862,-0.984581470489502
1742766209821658000,1.949658203125,9.57205867767334,1.916788101196289,-0.9683659672737122
1742766209826452500,1.954452392578125,9.5830659866333,1.86677086353302,-0.9571436643600464
1742766209831233500,1.959233642578125,9.592971801757812,1.8176052570343018,-0.952527642250061
1742766209836041200,1.964041259765625,9.601334571838379,1.7701276540756226,-0.9576658010482788
1742766209840835600,1.968835693359375,9.607901573181152,1.7247740030288696,-0.9744204878807068
1742766209845616600,1.97361669921875,9.612680435180664,1.6829222440719604,-1.0001322031021118
1742766209850424600,1.978424560546875,9.615793228149414,1.6450779438018799,-1.0326361656188965
1742766209855219000,1.983218994140625,9.617724418640137,1.6075016260147095,-1.073042869567871
1742766209860013300,1.988013427734375,9.61829948425293,1.569225788116455,-1.1233673095703125
1742766209864808000,1.992807861328125,9.617469787597656,1.537621021270752,-1.1730737686157227
1742766209869602300,1.997602294921875,9.61567211151123,1.5148617029190063,-1.216614007949829
1742766209874396700,2.002396728515625,9.613280296325684,1.4998737573623657,-1.2535264492034912
1742766209879191000,2.00719091796875,9.610940933227539,1.4912701845169067,-1.281420111656189
1742766209883985700,2.011985595703125,9.609362602233887,1.487776756286621,-1.2972221374511719
1742766209888766700,2.0167666015625,9.608701705932617,1.4886839389801025,-1.3010698556900024
1742766209893574400,2.021574462890625,9.60884952545166,1.492480754852295,-1.2956172227859497
1742766209898368800,2.02636865234375,9.609964370727539,1.4979047775268555,-1.2810057401657104
1742766209903149800,2.03114990234375,9.612248420715332,1.5034065246582031,-1.2571970224380493
1742766209907957800,2.035957763671875,9.615863800048828,1.5076817274093628,-1.223996877670288
1742766209912752000,2.040752197265625,9.620738983154297,1.5096646547317505,-1.1825429201126099
1742766209917533200,2.045533203125,9.626567840576172,1.508401870727539,-1.1357907056808472
1742766209922340900,2.0503408203125,9.633430480957031,1.5021346807479858,-1.0847612619400024
1742766209927135500,2.055135498046875,9.641030311584473,1.489423155784607,-1.0335673093795776
1742766209931929900,2.059929931640625,9.649154663085938,1.4699594974517822,-0.9844534993171692
1742766209936724200,2.06472412109375,9.657437324523926,1.445004940032959,-0.9391369223594666
1742766209941518800,2.069518798828125,9.665499687194824,1.4163600206375122,-0.8989778757095337
1742766209946313200,2.074313232421875,9.673299789428711,1.3847692012786865,-0.8635962009429932
1742766209951107600,2.079107666015625,9.680922508239746,1.3504492044448853,-0.8319433927536011
1742766209955902000,2.08390185546875,9.688288688659668,1.3144164085388184,-0.8034223914146423
1742766209960683000,2.08868310546875,9.695112228393555,1.2781071662902832,-0.7793235182762146
1742766209965491000,2.093490966796875,9.701128959655762,1.2428860664367676,-0.7612011432647705
1742766209970285300,2.098285400390625,9.70617389678955,1.2098376750946045,-0.7500567436218262
1742766209975066400,2.10306640625,9.710152626037598,1.1798336505889893,-0.7463522553443909
1742766209979874000,2.1078740234375,9.713213920593262,1.153597354888916,-0.7475273609161377
1742766209984668700,2.112668701171875,9.715374946594238,1.1321136951446533,-0.7522777915000916
1742766209989463000,2.117463134765625,9.716727256774902,1.1147719621658325,-0.7606566548347473
1742766209994257400,2.12225732421875,9.717524528503418,1.1007475852966309,-0.770833432674408
1742766209999051800,2.1270517578125,9.717877388000488,1.089491844177246,-0.7822890877723694
1742766210003846400,2.131846435546875,9.717742919921875,1.080040693283081,-0.7969380617141724
1742766210008640800,2.136640869140625,9.717161178588867,1.070967197418213,-0.8160354495048523
1742766210013435100,2.14143505859375,9.71631145477295,1.060962438583374,-0.8389054536819458
1742766210018216200,2.14621630859375,9.715483665466309,1.0486366748809814,-0.8636252284049988
1742766210023023900,2.15102392578125,9.714905738830566,1.0331753492355347,-0.8884087204933167
1742766210027818500,2.155818603515625,9.714731216430664,1.0147264003753662,-0.9112851023674011
1742766210032612900,2.16061279296875,9.71496295928955,0.993686318397522,-0.9317609667778015
1742766210037407200,2.1654072265625,9.715593338012695,0.97027587890625,-0.9496928453445435
1742766210042201900,2.170201904296875,9.716493606567383,0.9455936551094055,-0.9652561545372009
1742766210046996200,2.174996337890625,9.717447280883789,0.9204868078231812,-0.9798122644424438
1742766210051790600,2.17979052734375,9.718317031860352,0.8952047228813171,-0.9945028424263
1742766210056585000,2.1845849609375,9.719246864318848,0.869381308555603,-1.0082272291183472
1742766210061379600,2.189379638671875,9.720359802246094,0.8427255153656006,-1.0200568437576294
1742766210066174000,2.194174072265625,9.721467971801758,0.8161346316337585,-1.0310710668563843
1742766210070968300,2.19896826171875,9.722228050231934,0.7912912368774414,-1.0431878566741943
1742766210075762700,2.2037626953125,9.722550392150879,0.7690577507019043,-1.056725025177002
1742766210080557000,2.20855712890625,9.72260570526123,0.7498735785484314,-1.0699272155761719
1742766210085351700,2.2133515625,9.722590446472168,0.7343186736106873,-1.0807925462722778
1742766210090146000,2.21814599609375,9.723228454589844,0.719193696975708,-1.0852179527282715
1742766210094940400,2.2229404296875,9.72455883026123,0.7063089609146118,-1.0817487239837646
1742766210099734800,2.22773486328125,9.726375579833984,0.6948983669281006,-1.0727697610855103
1742766210104529400,2.232529296875,9.728741645812988,0.6837703585624695,-1.0583683252334595
1742766210109323800,2.23732373046875,9.731575012207031,0.6723595261573792,-1.0394662618637085
1742766210114118100,2.2421181640625,9.734464645385742,0.6612100005149841,-1.0193690061569214
1742766210118912500,2.24691259765625,9.73715591430664,0.6512540578842163,-0.9998859167098999
1742766210123707100,2.25170703125,9.739659309387207,0.6428996324539185,-0.9807296395301819
1742766210128501500,2.25650146484375,9.742086410522461,0.6353595852851868,-0.9613359570503235
1742766210133295900,2.2612958984375,9.744422912597656,0.6275259852409363,-0.9426305294036865
1742766210138090200,2.26609033203125,9.746685028076172,0.6189408302307129,-0.9247435331344604
1742766210142884900,2.270884765625,9.748950004577637,0.6098847985267639,-0.9067150354385376
1742766210147679200,2.27567919921875,9.75129508972168,0.6005495190620422,-0.8875137567520142
1742766210152473600,2.2804736328125,9.753809928894043,0.5908119678497314,-0.8661662936210632
1742766210157268000,2.28526806640625,9.756403923034668,0.5814111232757568,-0.8430066108703613
1742766210162062600,2.2900625,9.758960723876953,0.5715972185134888,-0.8198007941246033
1742766210166857000,2.29485693359375,9.76144027709961,0.5605238080024719,-0.7976309061050415
1742766210171651300,2.2996513671875,9.763813972473145,0.5478147864341736,-0.7771309614181519
1742766210176445700,2.30444580078125,9.76599407196045,0.5334067940711975,-0.759576678276062
1742766210181240000,2.309239990234375,9.76771354675293,0.5186841487884521,-0.7475594878196716
1742766210186034700,2.31403466796875,9.769157409667969,0.5012079477310181,-0.7405761480331421
1742766210190815700,2.318815673828125,9.770610809326172,0.47905343770980835,-0.736048698425293
1742766210195623400,2.32362353515625,9.77219295501709,0.4505460262298584,-0.7330536246299744
1742766210200417800,2.328417724609375,9.773777961730957,0.4161219298839569,-0.7322760224342346
1742766210205212400,2.33321240234375,9.77521800994873,0.3765239417552948,-0.7344657182693481
1742766210210006800,2.3380068359375,9.776446342468262,0.33210399746894836,-0.7395370006561279
1742766210214801200,2.34280126953125,9.777267456054688,0.2868049144744873,-0.7475950717926025
1742766210219595500,2.347595458984375,9.777947425842285,0.2388952076435089,-0.7555111646652222
1742766210224390100,2.35239013671875,9.778735160827637,0.1862230747938156,-0.7601065635681152
1742766210229184500,2.3571845703125,9.779622077941895,0.12857405841350555,-0.7606422901153564
1742766210233965600,2.361965576171875,9.780434608459473,0.06843719631433487,-0.7579727172851562
1742766210238773200,2.366773193359375,9.781074523925781,0.008135642856359482,-0.7527496218681335
1742766210243567900,2.37156787109375,9.781516075134277,-0.048699505627155304,-0.7454428672790527
1742766210248349000,2.376348876953125,9.78187370300293,-0.10219918936491013,-0.7352562546730042
1742766210253156600,2.381156494140625,9.782328605651855,-0.15360161662101746,-0.720110297203064
1742766210257951000,2.385950927734375,9.782912254333496,-0.20189841091632843,-0.6999858021736145
1742766210262732300,2.390732177734375,9.783483505249023,-0.24740362167358398,-0.6770176887512207
1742766210267540000,2.3955400390625,9.786643981933594,-0.27280327677726746,-0.6191117167472839
1742766210272334300,2.400334228515625,9.793671607971191,-0.25099730491638184,-0.5070666670799255
1742766210277115400,2.405115478515625,9.794167518615723,-0.24999909102916718,-0.4978749454021454
1742766210281923300,2.40992333984375,9.792998313903809,-0.24497061967849731,-0.522769033908844
1742766210286717700,2.4147177734375,9.79232120513916,-0.24041195213794708,-0.5373677015304565
1742766210291498800,2.419498779296875,9.791309356689453,-0.2505539357662201,-0.5509806871414185
1742766210296306400,2.424306396484375,9.791095733642578,-0.26467904448509216,-0.5481798052787781
1742766210301100800,2.429100830078125,9.791479110717773,-0.2721453607082367,-0.5375792384147644
1742766210305882000,2.433882080078125,9.791448593139648,-0.2758413553237915,-0.5362402200698853
1742766210310689800,2.438689697265625,9.790963172912598,-0.27486249804496765,-0.5455305576324463
1742766210315484200,2.443484130859375,9.790203094482422,-0.27028971910476685,-0.5612225532531738
1742766210320265200,2.44826513671875,9.789214134216309,-0.2657195031642914,-0.5803356170654297
1742766210325073200,2.4530732421875,9.788037300109863,-0.2634463608264923,-0.600849986076355
1742766210329867500,2.457867431640625,9.786796569824219,-0.26392027735710144,-0.620542049407959
1742766210334648600,2.462648681640625,9.78603458404541,-0.264825701713562,-0.632070004940033
1742766210339456500,2.46745654296875,9.787320137023926,-0.25380879640579224,-0.6164880394935608
1742766210344251000,2.4722509765625,9.788180351257324,-0.24107614159584045,-0.6078773736953735
1742766210349032000,2.477031982421875,9.788607597351074,-0.22901348769664764,-0.6056604981422424
1742766210353839600,2.481839599609375,9.789324760437012,-0.21272940933704376,-0.5999805331230164
1742766210358634000,2.486634033203125,9.78881549835205,-0.19893403351306915,-0.6128811836242676
1742766210363415300,2.491415283203125,9.788183212280273,-0.1833445131778717,-0.6276620626449585
1742766210368223000,2.496222900390625,9.787038803100586,-0.16603399813175201,-0.6499298214912415
1742766210373017300,2.501017333984375,9.78561782836914,-0.14654238522052765,-0.6755067110061646
1742766210377798400,2.50579833984375,9.784083366394043,-0.12316536158323288,-0.7018933892250061
1742766210382606300,2.5106064453125,9.781628608703613,-0.1016177237033844,-0.7385973334312439
1742766210387400700,2.515400634765625,9.779180526733398,-0.08102861791849136,-0.7727705240249634
1742766210392195000,2.520195068359375,9.7767915725708,-0.059606827795505524,-0.8043099045753479
1742766210396989400,2.524989501953125,9.774314880371094,-0.03663257136940956,-0.8351840376853943
1742766210401784000,2.5297841796875,9.771618843078613,-0.011786799877882004,-0.8668522238731384
1742766210406565000,2.534565185546875,9.769709587097168,0.018863484263420105,-0.8879956007003784
1742766210411372800,2.539372802734375,9.768182754516602,0.05615673586726189,-0.9030797481536865
1742766210416167200,2.544167236328125,9.766092300415039,0.09557458758354187,-0.9221754670143127
1742766210420948200,2.5489482421875,9.764455795288086,0.14038915932178497,-0.9337035417556763
1742766210425756200,2.553756103515625,9.763286590576172,0.19071395695209503,-0.9369967579841614
1742766210430550500,2.558550537109375,9.7622709274292,0.2397659868001938,-0.9363189339637756
1742766210435331600,2.56333154296875,9.761810302734375,0.29090115427970886,-0.9265853762626648
1742766210440139500,2.568139404296875,9.761539459228516,0.3436308205127716,-0.9112498760223389
1742766210444934000,2.572933837890625,9.761750221252441,0.39856451749801636,-0.8862812519073486
1742766210449715000,2.57771484375,9.760156631469727,0.44103509187698364,-0.8837089538574219
1742766210454522600,2.582522705078125,9.758620262145996,0.4684065878391266,-0.8865811228752136
1742766210459317000,2.58731689453125,9.760956764221191,0.4720251262187958,-0.8585024476051331
1742766210464098300,2.592098388671875,9.762091636657715,0.46834635734558105,-0.8475474119186401
1742766210468906000,2.596906005859375,9.760683059692383,0.46500954031944275,-0.8654097318649292
1742766210473700400,2.601700439453125,9.758288383483887,0.45861825346946716,-0.8953138589859009
1742766210478481400,2.6064814453125,9.75590705871582,0.4489727318286896,-0.9256325364112854
1742766210483289300,2.611289306640625,9.756145477294922,0.4483294188976288,-0.923429548740387
1742766210488083700,2.616083740234375,9.756989479064941,0.4585331082344055,-0.9093966484069824
1742766210492864800,2.62086474609375,9.757827758789062,0.4695432782173157,-0.8946706652641296
1742766210497672700,2.625672607421875,9.758344650268555,0.4769657254219055,-0.8850470185279846
1742766210502467000,2.630467041015625,9.758294105529785,0.47940582036972046,-0.8842933773994446
1742766210507261400,2.635261474609375,9.757209777832031,0.4768415093421936,-0.8975445628166199
1742766210512055800,2.640055908203125,9.75525188446045,0.47047942876815796,-0.9218560457229614
1742766210516850200,2.64485009765625,9.754167556762695,0.4600540101528168,-0.938446581363678
1742766210521631500,2.649631591796875,9.754470825195312,0.4627392292022705,-0.9339563250541687
1742766210526439200,2.654439208984375,9.754775047302246,0.47194063663482666,-0.9261476397514343
1742766210531233500,2.659233642578125,9.75508975982666,0.48163655400276184,-0.9177992343902588
1742766210536028000,2.66402783203125,9.754942893981934,0.49339914321899414,-0.9131090641021729
1742766210540822500,2.668822509765625,9.755269050598145,0.5072171688079834,-0.9019796848297119
1742766210545617000,2.673616943359375,9.755302429199219,0.5245629549026489,-0.8916394710540771
1742766210550411300,2.678411376953125,9.75544548034668,0.5456658601760864,-0.8772892951965332
1742766210555205600,2.68320556640625,9.75606918334961,0.5706163644790649,-0.8541770577430725
1742766210560000300,2.688000244140625,9.756731986999512,0.6001192331314087,-0.8259193897247314
1742766210564794600,2.692794677734375,9.757648468017578,0.6337782740592957,-0.7891283631324768
1742766210569589000,2.697589111328125,9.758082389831543,0.6717859506607056,-0.7514223456382751
1742766210574383400,2.70238330078125,9.75847053527832,0.7111045122146606,-0.7090095281600952
1742766210579164400,2.707164306640625,9.757935523986816,0.7509987950325012,-0.6743832230567932
1742766210583972400,2.711972412109375,9.757019996643066,0.7879191637039185,-0.6448657512664795
1742766210588766700,2.7167666015625,9.75615119934082,0.8197222948074341,-0.6177950501441956
1742766210593561000,2.72156103515625,9.755167007446289,0.8470999002456665,-0.5960278511047363
1742766210598355700,2.726355712890625,9.754334449768066,0.8695475459098816,-0.5770295858383179
1742766210603150000,2.731150146484375,9.753894805908203,0.8846678137779236,-0.5612465739250183
1742766210607944400,2.7359443359375,9.75362777709961,0.8959618806838989,-0.5478223562240601
1742766210612738800,2.74073876953125,9.753362655639648,0.9047715067863464,-0.537973165512085
1742766210617533400,2.745533447265625,9.753390312194824,0.9085418581962585,-0.5310602784156799
1742766210622327800,2.750327880859375,9.753334045410156,0.9067174196243286,-0.5352125763893127
1742766210627122200,2.7551220703125,9.753545761108398,0.8980136513710022,-0.5459250807762146
1742766210631916500,2.75991650390625,9.754014015197754,0.8853470683097839,-0.5580987334251404
1742766210636711200,2.764711181640625,9.754170417785645,0.8715595602989197,-0.5767676830291748
1742766210641505500,2.769505615234375,9.754460334777832,0.8566388487815857,-0.5939490795135498
1742766210646300000,2.7742998046875,9.75471305847168,0.8420822620391846,-0.6103875041007996
1742766210651094300,2.77909423828125,9.754846572875977,0.8266637921333313,-0.6290560364723206
1742766210655889000,2.783888916015625,9.755032539367676,0.8101028203964233,-0.6474410891532898
1742766210660683300,2.788683349609375,9.754988670349121,0.7925925850868225,-0.6694113612174988
1742766210665477600,2.7934775390625,9.754953384399414,0.7747750282287598,-0.6904491186141968
1742766210670272000,2.79827197265625,9.754714965820312,0.7570698261260986,-0.7130850553512573
1742766210675066400,2.80306640625,9.754549026489258,0.7381964921951294,-0.7348116636276245
1742766210679861000,2.807861083984375,9.754356384277344,0.7198777198791504,-0.7552537322044373
1742766210684655400,2.8126552734375,9.754073143005371,0.6997892260551453,-0.7774665355682373
1742766210689449700,2.81744970703125,9.7539701461792,0.676551103591919,-0.7990334033966064
1742766210694244000,2.822244140625,9.753545761108398,0.6509707570075989,-0.8250434994697571
1742766210699038700,2.827038818359375,9.752878189086914,0.6224937438964844,-0.8543875217437744
1742766210703833000,2.8318330078125,9.751848220825195,0.5889996290206909,-0.8891773223876953
1742766210708627500,2.83662744140625,9.750249862670898,0.5506650805473328,-0.9303281307220459
1742766210713422000,2.841422119140625,9.748516082763672,0.506269633769989,-0.9727389812469482
1742766210718216400,2.846216552734375,9.748503684997559,0.4625284969806671,-0.9944167733192444
1742766210722997500,2.85099755859375,9.750397682189941,0.45974069833755493,-0.9769833087921143
1742766210727805200,2.85580517578125,9.751726150512695,0.46559593081474304,-0.9608210921287537
1742766210732599600,2.860599609375,9.753080368041992,0.46170756220817566,-0.9488694667816162
1742766210737380900,2.865380859375,9.75364875793457,0.4526895582675934,-0.9473668932914734
1742766210742188500,2.8701884765625,9.755302429199219,0.4472459554672241,-0.9328185319900513
1742766210746983000,2.87498291015625,9.756736755371094,0.4412219226360321,-0.920601487159729
1742766210751764000,2.879763916015625,9.758244514465332,0.4400852918624878,-0.9050313234329224
1742766210756572000,2.884572021484375,9.7608060836792,0.43722352385520935,-0.8784098625183105
1742766210761366300,2.8893662109375,9.763419151306152,0.4266514778137207,-0.8542405366897583
1742766210766160600,2.89416064453125,9.76701545715332,0.4188773036003113,-0.816124439239502
1742766210770955000,2.898955078125,9.771300315856934,0.41270849108695984,-0.7664713263511658
1742766210775749600,2.90374951171875,9.77702522277832,0.40434467792510986,-0.6945334076881409
1742766210780544000,2.9085439453125,9.783646583557129,0.3934677541255951,-0.6012788414955139
1742766210785338400,2.91333837890625,9.790741920471191,0.38065773248672485,-0.48228326439857483
1742766210790132700,2.9181328125,9.79687786102295,0.3653562366962433,-0.35187116265296936
1742766210794913800,2.922913818359375,9.801198959350586,0.3536358177661896,-0.21802809834480286
1742766210799721700,2.9277216796875,9.803314208984375,0.34697872400283813,-0.10367438197135925
1742766210804516000,2.93251611328125,9.803610801696777,0.3532966673374176,-0.02216585911810398
1742766210809297200,2.937297119140625,9.802870750427246,0.373950719833374,0.0025821898598223925
1742766210814105000,2.94210498046875,9.802133560180664,0.39096102118492126,-0.037952084094285965
1742766210818899500,2.9468994140625,9.801387786865234,0.4010068476200104,-0.08997110277414322
1742766210823680500,2.951680419921875,9.801336288452148,0.39751651883125305,-0.10904697328805923
1742766210828488200,2.95648828125,9.802107810974121,0.3827245831489563,-0.09117670357227325
1742766210833282800,2.96128271484375,9.802972793579102,0.36690449714660645,-0.05671805888414383
1742766210838063900,2.96606396484375,9.803564071655273,0.353944331407547,-0.03094562701880932
1742766210842871600,2.97087158203125,9.803948402404785,0.3441247045993805,-0.01685917191207409
1742766210847666000,2.975666015625,9.804235458374023,0.336134672164917,-0.009700357913970947
1742766210852447000,2.980447021484375,9.804412841796875,0.3310331702232361,-0.00366540951654315
1742766210857255000,2.9852548828125,9.80449104309082,0.32871147990226746,0.004089327994734049
1742766210862049300,2.99004931640625,9.804574012756348,0.32611146569252014,0.009374028071761131
1742766210866843600,2.99484375,9.80456256866455,0.3263658583164215,0.01211999449878931
1742766210871638300,2.99963818359375,9.804534912109375,0.3272593915462494,0.010638502426445484
1742766210876432600,3.0044326171875,9.804534912109375,0.32735979557037354,0.00655793584883213
1742766210881213700,3.009213623046875,9.804441452026367,0.3302023708820343,0.0031801683362573385
1742766210886021400,3.014021484375,9.804413795471191,0.3310171067714691,-0.0017427398124709725
1742766210890815700,3.018815673828125,9.804363250732422,0.33248651027679443,-0.0032431127037853003
1742766210895610400,3.0236103515625,9.80424690246582,0.33591437339782715,-0.004394529853016138
1742766210900404700,3.02840478515625,9.804037094116211,0.341862291097641,-0.009611698798835278
1742766210905199000,3.03319921875,9.803766250610352,0.3490197956562042,-0.021606015041470528
1742766210909980200,3.037980224609375,9.80362319946289,0.35131826996803284,-0.04057648405432701
1742766210914788000,3.0427880859375,9.803618431091309,0.3496479392051697,-0.05409632623195648
1742766210919582500,3.04758251953125,9.803825378417969,0.34372222423553467,-0.05447304993867874
1742766210924363500,3.052363525390625,9.80409049987793,0.3382943570613861,-0.03853656351566315
1742766210929171500,3.05717138671875,9.804251670837402,0.3352774977684021,-0.01860310509800911
1742766210933965800,3.0619658203125,9.804352760314941,0.3326261639595032,-0.011411179788410664
1742766210938747000,3.066746826171875,9.804300308227539,0.3339185416698456,-0.01758480817079544
1742766210943554600,3.071554443359375,9.804057121276855,0.3401084244251251,-0.03004119172692299
1742766210948349000,3.076348876953125,9.803770065307617,0.3469245433807373,-0.04296758398413658
1742766210953143600,3.0811435546875,9.80341911315918,0.3553057909011841,-0.053326088935136795
1742766210957938000,3.08593798828125,9.802964210510254,0.3661341667175293,-0.06278124451637268
1742766210962732300,3.090732177734375,9.802496910095215,0.3763425350189209,-0.07439548522233963
1742766210967527000,3.09552685546875,9.802127838134766,0.3835792541503906,-0.085146464407444
1742766210972321300,3.1003212890625,9.8018159866333,0.39037925004959106,-0.09008922427892685
1742766210977115600,3.10511572265625,9.801553726196289,0.39686259627342224,-0.09029661864042282
1742766210981896700,3.109896728515625,9.801346778869629,0.40217238664627075,-0.08927105367183685
1742766210986704400,3.114704345703125,9.801260948181152,0.40347394347190857,-0.09281115978956223
1742766210991499000,3.1194990234375,9.801280975341797,0.4014362096786499,-0.09924168139696121
1742766210996280000,3.124280029296875,9.801318168640137,0.4004012942314148,-0.0997653529047966
1742766211001087700,3.129087646484375,9.801284790039062,0.40193650126457214,-0.09685616940259933
1742766211005882000,3.133882080078125,9.801209449768066,0.40401706099510193,-0.09584425389766693
1742766211010676700,3.1386767578125,9.801106452941895,0.4052611291408539,-0.10091549158096313
1742766211015471000,3.14347119140625,9.80095386505127,0.4078453779220581,-0.10522691905498505
1742766211020265500,3.148265380859375,9.800830841064453,0.41135352849960327,-0.10298923403024673
1742766211025059800,3.153059814453125,9.800707817077637,0.4149582087993622,-0.10026009380817413
1742766211029854500,3.1578544921875,9.800558090209961,0.41820311546325684,-0.10132250934839249
1742766211034648800,3.16264892578125,9.800477027893066,0.4191054105758667,-0.10539603978395462
1742766211039430000,3.167429931640625,9.800331115722656,0.42203372716903687,-0.10720367729663849
1742766211044237600,3.172237548828125,9.800122261047363,0.4268433153629303,-0.10727459192276001
1742766211049032200,3.1770322265625,9.800041198730469,0.42855706810951233,-0.10784780234098434
1742766211053826600,3.18182666015625,9.79995346069336,0.4303845167160034,-0.10854019969701767
1742766211058621000,3.186620849609375,9.799821853637695,0.43308329582214355,-0.10970692336559296
1742766211063415300,3.191415283203125,9.799703598022461,0.4354560673236847,-0.11084205657243729
1742766211068196600,3.196196533203125,9.799640655517578,0.4371812343597412,-0.10960076004266739
1742766211073004300,3.20100439453125,9.799427032470703,0.44305700063705444,-0.10501895844936371
1742766211077798700,3.205798583984375,9.799134254455566,0.45078638195991516,-0.0993172898888588
1742766211082593000,3.210593017578125,9.798866271972656,0.45716702938079834,-0.09655226767063141
1742766211087387600,3.2153876953125,9.798715591430664,0.46063873171806335,-0.09527494013309479
1742766211092182000,3.22018212890625,9.798730850219727,0.460726797580719,-0.09335725754499435
1742766211096976400,3.224976318359375,9.798624038696289,0.4629253149032593,-0.09372401982545853
1742766211101770800,3.229770751953125,9.798526763916016,0.4645553529262543,-0.09582377225160599
1742766211106565400,3.2345654296875,9.798599243164062,0.4629504382610321,-0.09607836604118347
1742766211111346400,3.239346435546875,9.798678398132324,0.46224546432495117,-0.09133527427911758
1742766211116154000,3.244154052734375,9.798583984375,0.4661043584346771,-0.08125387132167816
1742766211120948500,3.248948486328125,9.798468589782715,0.47011539340019226,-0.07145342230796814
1742766211125743000,3.2537431640625,9.798397064208984,0.47212666273117065,-0.06796515733003616
1742766211130537500,3.258537353515625,9.798324584960938,0.4737500250339508,-0.06718667596578598
1742766211135331800,3.263331787109375,9.798331260681152,0.4738203287124634,-0.06548865139484406
1742766211140113000,3.26811279296875,9.798386573791504,0.47325560450553894,-0.06126248836517334
1742766211144920800,3.2729208984375,9.79829216003418,0.47625693678855896,-0.052619121968746185
1742766211149715200,3.277715087890625,9.79818058013916,0.47966763377189636,-0.041107162833213806
1742766211154496300,3.282496337890625,9.798136711120605,0.48106831312179565,-0.03445252776145935
1742766211159304000,3.287303955078125,9.798101425170898,0.4818285405635834,-0.034060683101415634
1742766211164098600,3.2920986328125,9.798135757446289,0.4812001883983612,-0.03309349715709686
1742766211168893000,3.296892822265625,9.798133850097656,0.48132458329200745,-0.03161126375198364
1742766211173687300,3.301687255859375,9.798053741455078,0.4830535352230072,-0.03034345991909504
1742766211178481700,3.306481689453125,9.798023223876953,0.48372623324394226,-0.029347797855734825
1742766211183276300,3.3112763671875,9.798048973083496,0.48312970995903015,-0.0303244199603796
1742766211188070700,3.316070556640625,9.797986030578613,0.48438701033592224,-0.03093237429857254
1742766211192865000,3.320864990234375,9.797891616821289,0.4864368438720703,-0.028537044301629066
1742766211197659400,3.325659423828125,9.797821998596191,0.4878155291080475,-0.028712177649140358
1742766211202453800,3.330453857421875,9.797852516174316,0.48710039258003235,-0.03035956807434559
1742766211207248400,3.335248291015625,9.797922134399414,0.4857192039489746,-0.030127422884106636
1742766211212042800,3.340042724609375,9.797934532165527,0.48542025685310364,-0.031083863228559494
1742766211216837000,3.344837158203125,9.797952651977539,0.48493701219558716,-0.03277462348341942
1742766211221631700,3.3496318359375,9.79793643951416,0.48524242639541626,-0.033081792294979095
1742766211226426000,3.354426025390625,9.797823905944824,0.48737722635269165,-0.0347079299390316
1742766211231220500,3.359220458984375,9.797770500183105,0.4883952736854553,-0.03570351004600525
1742766211236014800,3.364014892578125,9.797748565673828,0.48873522877693176,-0.037218205630779266
1742766211240796000,3.3687958984375,9.79766845703125,0.48997461795806885,-0.04150383919477463
1742766211245603800,3.373603759765625,9.797648429870605,0.49040135741233826,-0.04129753261804581
1742766211250398200,3.378398193359375,9.79765510559082,0.49045467376708984,-0.03905192017555237
1742766211255192600,3.383192626953125,9.797679901123047,0.4896297752857208,-0.04286278784275055
1742766211259987000,3.387987060546875,9.797727584838867,0.4881228804588318,-0.04885552451014519
1742766211264781600,3.392781494140625,9.797813415527344,0.4865262508392334,-0.04752196744084358
1742766211269576000,3.397575927734375,9.79771614074707,0.48846033215522766,-0.047806233167648315
1742766211274370300,3.402370361328125,9.797672271728516,0.4893512725830078,-0.04747871682047844
1742766211279165000,3.4071650390625,9.797781944274902,0.4872181713581085,-0.04701017960906029
1742766211283959300,3.411959228515625,9.797789573669434,0.4865798354148865,-0.051677774637937546
1742766211288753700,3.416753662109375,9.79780101776123,0.48595669865608215,-0.055234700441360474
1742766211293548000,3.421548095703125,9.797828674316406,0.48528537154197693,-0.056239545345306396
1742766211298342700,3.4263427734375,9.797858238220215,0.484554260969162,-0.05742035433650017
1742766211303137000,3.431136962890625,9.79782772064209,0.4850405156612396,-0.058517102152109146
1742766211307931400,3.435931396484375,9.797856330871582,0.48440492153167725,-0.05897440016269684
1742766211312712400,3.44071240234375,9.797968864440918,0.48189225792884827,-0.06083923950791359
1742766211317520100,3.44552001953125,9.797994613647461,0.4811634421348572,-0.06234946474432945
1742766211322314800,3.450314697265625,9.797992706298828,0.48142850399017334,-0.06057015061378479
1742766211327109000,3.455109130859375,9.79801082611084,0.4815809726715088,-0.056239061057567596
1742766211331903500,3.459903564453125,9.798035621643066,0.48139744997024536,-0.053454991430044174
1742766211336698000,3.464697998046875,9.798044204711914,0.4816236197948456,-0.04981536418199539
1742766211341479200,3.469479248046875,9.798074722290039,0.48077529668807983,-0.0518522784113884
1742766211346286800,3.474286865234375,9.798080444335938,0.4803861975669861,-0.05436891317367554
1742766211351081200,3.479081298828125,9.79805850982666,0.48097407817840576,-0.05318407341837883
1742766211355875600,3.48387548828125,9.798007011413574,0.48201224207878113,-0.05323372781276703
1742766211360670200,3.488670166015625,9.797978401184082,0.4825419783592224,-0.05356348678469658
1742766211365464600,3.493464599609375,9.798067092895508,0.48085156083106995,-0.05263455584645271
1742766211370259000,3.498259033203125,9.798112869262695,0.4796629548072815,-0.05483533814549446
1742766211375053300,3.50305322265625,9.798182487487793,0.47793447971343994,-0.05764022842049599
1742766211379848000,3.507847900390625,9.798213958740234,0.47705066204071045,-0.05954233556985855
1742766211384629000,3.51262890625,9.798206329345703,0.4770492613315582,-0.060706205666065216
1742766211389436700,3.517436767578125,9.798253059387207,0.475851446390152,-0.0624433308839798
1742766211394231300,3.522231201171875,9.798291206359863,0.47497010231018066,-0.06323128193616867
1742766211399025700,3.527025634765625,9.798242568969727,0.4756258726119995,-0.06587512046098709
1742766211403820000,3.531820068359375,9.798236846923828,0.4754025936126709,-0.06822851300239563
1742766211408614400,3.536614501953125,9.798320770263672,0.4736195206642151,-0.06861578673124313
1742766211413408800,3.54140869140625,9.798291206359863,0.4735623598098755,-0.07303300499916077
1742766211418203400,3.546203369140625,9.798216819763184,0.47472068667411804,-0.07548807561397552
1742766211422997800,3.550997802734375,9.798200607299805,0.4753570556640625,-0.07352735847234726
1742766211427778800,3.55577880859375,9.79820442199707,0.4748624265193939,-0.07612597197294235
1742766211432586500,3.56058642578125,9.798216819763184,0.4741107225418091,-0.07919769734144211
1742766211437381000,3.565381103515625,9.798206329345703,0.47497257590293884,-0.0752808004617691
1742766211442162200,3.570162109375,9.79806137084961,0.4782918393611908,-0.07314441353082657
1742766211446969900,3.574969970703125,9.798006057739258,0.4795020818710327,-0.0725884810090065
1742766211451764500,3.579764404296875,9.798039436340332,0.4789924919605255,-0.07140327990055084
1742766211456545300,3.584545166015625,9.798020362854004,0.4792042076587677,-0.07256145775318146
1742766211461353200,3.589353271484375,9.797890663146973,0.48142221570014954,-0.07537119090557098
1742766211466147600,3.594147705078125,9.797750473022461,0.4848260283470154,-0.07165641337633133
1742766211470942000,3.59894189453125,9.797645568847656,0.48699313402175903,-0.07131979614496231
1742766211475736600,3.603736572265625,9.797603607177734,0.4875236451625824,-0.07346945255994797
1742766211480531000,3.608531005859375,9.797615051269531,0.48754042387008667,-0.07181663811206818
1742766211485325300,3.6133251953125,9.797529220581055,0.4891895651817322,-0.07221148163080215
1742766211490119700,3.61811962890625,9.797446250915527,0.49039602279663086,-0.07521730661392212
1742766211494914300,3.622914306640625,9.797374725341797,0.4919487237930298,-0.0745176151394844
1742766211499708700,3.627708740234375,9.797240257263184,0.4946693480014801,-0.07411505281925201
1742766211504503000,3.6325029296875,9.797131538391113,0.49680039286613464,-0.07427724450826645
1742766211509297400,3.63729736328125,9.79708194732666,0.4977550804615021,-0.07437057793140411
1742766211514092000,3.642092041015625,9.797041893005371,0.498282790184021,-0.0761265680193901
1742766211518886400,3.646886474609375,9.797030448913574,0.4985065460205078,-0.07608812302350998
1742766211523680800,3.6516806640625,9.797004699707031,0.4992564022541046,-0.07443612813949585
1742766211528475100,3.65647509765625,9.79698657989502,0.49938246607780457,-0.07607858628034592
1742766211533269800,3.661269775390625,9.797019004821777,0.49817004799842834,-0.07967359572649002
1742766211538064100,3.666064208984375,9.797030448913574,0.49819210171699524,-0.07815378159284592
1742766211542858500,3.6708583984375,9.79703140258789,0.4977799952030182,-0.08065766841173172
1742766211547653000,3.675653076171875,9.79701042175293,0.4975278675556183,-0.08467250317335129
1742766211552447500,3.680447509765625,9.796859741210938,0.5003740191459656,-0.08524876832962036
1742766211557241900,3.685241943359375,9.796710968017578,0.5024203062057495,-0.09023222327232361
1742766211562036200,3.6900361328125,9.796704292297363,0.5013192892074585,-0.0968058705329895
1742766211566830600,3.69483056640625,9.796630859375,0.5024752616882324,-0.09821449220180511
1742766211571625200,3.699625244140625,9.796531677246094,0.5037208199501038,-0.10166853666305542
1742766211576419600,3.704419677734375,9.796512603759766,0.5039055943489075,-0.1026386171579361
1742766211581214000,3.7092138671875,9.796539306640625,0.5032377243041992,-0.10333944857120514
1742766211586008300,3.71400830078125,9.796528816223145,0.5032833218574524,-0.10408785194158554
1742766211590803000,3.718802978515625,9.796443939208984,0.5047773718833923,-0.10485529154539108
1742766211595597300,3.723597412109375,9.796445846557617,0.5047866702079773,-0.1046346127986908
1742766211600378400,3.72837841796875,9.796477317810059,0.5030626654624939,-0.10988359153270721
1742766211605186300,3.733186279296875,9.796526908874512,0.5018787384033203,-0.11087065935134888
1742766211609980700,3.737980712890625,9.796462059020996,0.5030628442764282,-0.11118809878826141
1742766211614775000,3.742775146484375,9.79636001586914,0.5052882432937622,-0.11008178442716599
1742766211619569400,3.7475693359375,9.796351432800293,0.5051360726356506,-0.11158601194620132
1742766211624363800,3.75236376953125,9.796408653259277,0.5041196346282959,-0.11111847311258316
1742766211629145000,3.75714501953125,9.796303749084473,0.5061042904853821,-0.11136665940284729
1742766211633952800,3.761952880859375,9.796217918395996,0.5070916414260864,-0.1143852099776268
1742766211638747100,3.7667470703125,9.79621696472168,0.506674587726593,-0.11628612130880356
1742766211643528200,3.771528076171875,9.796170234680176,0.506979763507843,-0.1188414916396141
1742766211648336100,3.776336181640625,9.796106338500977,0.5079432129859924,-0.12004710733890533
1742766211653130500,3.781130615234375,9.796049118041992,0.5093371868133545,-0.11880171298980713
1742766211657924900,3.7859248046875,9.7960844039917,0.5084966421127319,-0.11943646520376205
1742766211662719200,3.79071923828125,9.796158790588379,0.5062955021858215,-0.12265146523714066
1742766211667513900,3.795513916015625,9.796142578125,0.5070159435272217,-0.12096692621707916
1742766211672308200,3.80030810546875,9.79613208770752,0.5073369741439819,-0.12045690417289734
1742766211677102600,3.8051025390625,9.796082496643066,0.5076891183853149,-0.12294469773769379
1742766211681897000,3.80989697265625,9.796100616455078,0.5084573030471802,-0.11830522119998932
1742766211686691600,3.814691650390625,9.796125411987305,0.5071914196014404,-0.12166905403137207
1742766211691486000,3.81948583984375,9.796117782592773,0.5067325234413147,-0.1241213008761406
1742766211696280300,3.8242802734375,9.796074867248535,0.5080840587615967,-0.12195205688476562
1742766211701074700,3.82907470703125,9.796097755432129,0.507494330406189,-0.12258440256118774
1742766211705869300,3.833869384765625,9.796092987060547,0.5076960325241089,-0.1221642717719078
1742766211710663700,3.83866357421875,9.796148300170898,0.5068657994270325,-0.12113691121339798
1742766211715458000,3.8434580078125,9.79620361328125,0.5058351159095764,-0.12094920128583908
1742766211720252400,3.84825244140625,9.796299934387207,0.5032154321670532,-0.12407094985246658
1742766211725047000,3.853047119140625,9.796303749084473,0.5036971569061279,-0.12183594703674316
1742766211729841400,3.85784130859375,9.796304702758789,0.5036932826042175,-0.12165138870477676
1742766211734635800,3.8626357421875,9.796270370483398,0.5033260583877563,-0.12597592175006866
1742766211739430100,3.86743017578125,9.79633903503418,0.5026631951332092,-0.12318786233663559
1742766211744211500,3.87221142578125,9.796347618103027,0.5012295842170715,-0.12824757397174835
1742766211749019100,3.87701904296875,9.796299934387207,0.5018574595451355,-0.1294390708208084
1742766211753813500,3.8818134765625,9.796238899230957,0.503231942653656,-0.12873917818069458
1742766211758594600,3.886594482421875,9.795965194702148,0.5073428750038147,-0.13333645462989807
1742766211763402500,3.891402587890625,9.79581356048584,0.5087080001831055,-0.13909432291984558
1742766211768196900,3.89619677734375,9.795677185058594,0.5097883939743042,-0.14466042816638947
1742766211772991200,3.9009912109375,9.79562759399414,0.5098579525947571,-0.1477552056312561
1742766211777785600,3.90578564453125,9.79560661315918,0.5085003972053528,-0.1537124365568161
1742766211782580200,3.910580322265625,9.795437812805176,0.5103488564491272,-0.15828754007816315
1742766211787374600,3.91537451171875,9.795490264892578,0.5093501210212708,-0.15825104713439941
1742766211792169000,3.9201689453125,9.795580863952637,0.5073884129524231,-0.1589389443397522
1742766211796963300,3.92496337890625,9.795557022094727,0.5072934627532959,-0.16070392727851868
1742766211801744400,3.929744384765625,9.795567512512207,0.5068076252937317,-0.16156774759292603
1742766211806552300,3.93455224609375,9.795452117919922,0.5084854364395142,-0.163331538438797
1742766211811346700,3.9393466796875,9.795415878295898,0.5086184740066528,-0.16507162153720856
1742766211816127700,3.944127685546875,9.795524597167969,0.5066567659378052,-0.1646285504102707
1742766211820935700,3.948935791015625,9.795461654663086,0.5084722638130188,-0.16273733973503113
1742766211825730000,3.95372998046875,9.795194625854492,0.5123304724693298,-0.16668690741062164
1742766211830511000,3.958510986328125,9.795209884643555,0.51076740026474,-0.1705690622329712
1742766211835318800,3.96331884765625,9.795272827148438,0.509732186794281,-0.17003490030765533
1742766211840113400,3.968113525390625,9.7950439453125,0.5136824250221252,-0.17132887244224548
1742766211844907800,3.97290771484375,9.79494571685791,0.5143805146217346,-0.17480036616325378
1742766211849702100,3.9777021484375,9.79503345489502,0.5125338435173035,-0.17530636489391327
1742766211854496800,3.982496826171875,9.795126914978027,0.5114342570304871,-0.17329926788806915
1742766211859291100,3.987291015625,9.795209884643555,0.5098443627357483,-0.17329594492912292
1742766211864085500,3.99208544921875,9.795206069946289,0.5094841718673706,-0.17453418672084808
1742766211868880000,3.9968798828125,9.79525089263916,0.5082797408103943,-0.1755639612674713
1742766211873674200,4.00167431640625,9.795372009277344,0.5061824321746826,-0.17482738196849823
1742766211878468900,4.00646875,9.79539966583252,0.5058947801589966,-0.17415519058704376
1742766211883263200,4.01126318359375,9.795328140258789,0.5064544677734375,-0.1765204668045044
1742766211888057600,4.0160576171875,9.795422554016113,0.5039434432983398,-0.178482323884964
1742766211892852000,4.02085205078125,9.795557022094727,0.5016985535621643,-0.17739646136760712
1742766211897646600,4.025646484375,9.795453071594238,0.5032504796981812,-0.17873221635818481
1742766211902441000,4.03044091796875,9.795412063598633,0.5036298632621765,-0.179945707321167
1742766211907235300,4.0352353515625,9.795534133911133,0.5014084577560425,-0.17950142920017242
1742766211912029700,4.04002978515625,9.795625686645508,0.49990779161453247,-0.178659126162529
1742766211916824300,4.04482421875,9.795701026916504,0.49861058592796326,-0.178158238530159
1742766211921618700,4.04961865234375,9.79567813873291,0.49823644757270813,-0.18045596778392792
1742766211926413000,4.0544130859375,9.795690536499023,0.49776822328567505,-0.1810387521982193
1742766211931194000,4.059194091796875,9.79586410522461,0.49498194456100464,-0.17927683889865875
1742766211936002000,4.064001953125,9.795883178710938,0.4949724078178406,-0.17827627062797546
1742766211940796400,4.06879638671875,9.795801162719727,0.49577176570892334,-0.1805534064769745
1742766211945590800,4.0735908203125,9.795859336853027,0.49404099583625793,-0.18215596675872803
1742766211950385400,4.078385498046875,9.795893669128418,0.4936017096042633,-0.18150173127651215
1742766211955179800,4.0831796875,9.795766830444336,0.4952720105648041,-0.18376809358596802
1742766211959974100,4.08797412109375,9.795700073242188,0.49619999527931213,-0.184828519821167
1742766211964768500,4.0927685546875,9.795722961425781,0.49583688378334045,-0.1845667064189911
1742766211969563000,4.09756298828125,9.79566764831543,0.4966522753238678,-0.1852908879518509
1742766211974357500,4.102357421875,9.795706748962402,0.4953599274158478,-0.18670351803302765
1742766211979152000,4.10715185546875,9.795733451843262,0.4938298761844635,-0.18934284150600433
1742766211983946200,4.1119462890625,9.795670509338379,0.494832843542099,-0.18994012475013733
1742766211988727300,4.116727294921875,9.79565715789795,0.4952358603477478,-0.1896062046289444
1742766211993535200,4.12153515625,9.79552173614502,0.4970836639404297,-0.19170570373535156
1742766211998329600,4.12632958984375,9.795539855957031,0.4962180554866791,-0.19308622181415558
1742766212003110700,4.131110595703125,9.795748710632324,0.49249669909477234,-0.19197843968868256
1742766212007918600,4.135918701171875,9.795816421508789,0.49184727668762207,-0.19017532467842102
1742766212012713000,4.140712890625,9.795687675476074,0.49358069896698,-0.1923283487558365
1742766212017507300,4.14550732421875,9.795636177062988,0.4936138987541199,-0.19484315812587738
1742766212022301700,4.1503017578125,9.795658111572266,0.4934934079647064,-0.19407758116722107
1742766212027096000,4.155095947265625,9.795663833618164,0.49371200799942017,-0.19317789375782013
1742766212031890700,4.159890625,9.795587539672852,0.4941481351852417,-0.19591809809207916
1742766212036685000,4.16468505859375,9.7955322265625,0.4944559633731842,-0.19791173934936523
1742766212041479400,4.1694794921875,9.795500755310059,0.49527817964553833,-0.19741381704807281
1742766212046260500,4.174260498046875,9.79557991027832,0.49433809518814087,-0.1958264261484146
1742766212051068400,4.179068359375,9.79555606842041,0.4946554899215698,-0.19624941051006317
1742766212055862800,4.18386279296875,9.795609474182129,0.4929583668708801,-0.19779327511787415
1742766212060643800,4.188643798828125,9.795730590820312,0.4901401102542877,-0.19885854423046112
1742766212065451500,4.193451416015625,9.795722007751465,0.4906037449836731,-0.19809380173683167
1742766212070246100,4.19824609375,9.795598983764648,0.491850346326828,-0.20109416544437408
1742766212075027200,4.203027099609375,9.795624732971191,0.49084389209747314,-0.2023041993379593
1742766212079835000,4.2078349609375,9.795710563659668,0.48924392461776733,-0.2020302265882492
1742766212084629200,4.212629150390625,9.795676231384277,0.4897909164428711,-0.20235592126846313
1742766212089424000,4.217423828125,9.795562744140625,0.4904712736606598,-0.20614981651306152
1742766212094218200,4.22221826171875,9.795496940612793,0.4910365045070648,-0.20791888236999512
1742766212099012600,4.2270126953125,9.795538902282715,0.49056148529052734,-0.2070426493883133
1742766212103807200,4.23180712890625,9.795514106750488,0.49043747782707214,-0.20850861072540283
1742766212108601600,4.2366015625,9.795426368713379,0.4916441738605499,-0.20980966091156006
1742766212113396000,4.24139599609375,9.795350074768066,0.49221575260162354,-0.21199972927570343
1742766212118190300,4.2461904296875,9.795479774475098,0.48883941769599915,-0.21382689476013184
1742766212122984700,4.250984619140625,9.795591354370117,0.48701807856559753,-0.2128424346446991
1742766212127779300,4.255779296875,9.795493125915527,0.4888104796409607,-0.2132486253976822
1742766212132573700,4.26057373046875,9.795306205749512,0.4902211129665375,-0.21855565905570984
1742766212137368000,4.2653681640625,9.795175552368164,0.4914730191230774,-0.2215527892112732
1742766212142162700,4.27016259765625,9.795183181762695,0.4922422766685486,-0.2195088267326355
1742766212146957000,4.27495703125,9.795145988464355,0.4916515350341797,-0.22248966991901398
1742766212151751400,4.27975146484375,9.79503345489502,0.492302805185318,-0.22595882415771484
1742766212156545800,4.2845458984375,9.79493236541748,0.49415314197540283,-0.22632822394371033
1742766212161326800,4.289326904296875,9.794941902160645,0.493439644575119,-0.22747103869915009
1742766212166134800,4.294134765625,9.794981002807617,0.4933793544769287,-0.22591647505760193
1742766212170929200,4.29892919921875,9.794880867004395,0.4947766363620758,-0.22719155251979828
1742766212175710200,4.303710205078125,9.794788360595703,0.49450695514678955,-0.23173509538173676
1742766212180518100,4.30851806640625,9.794808387756348,0.4940052032470703,-0.2319333702325821
1742766212185312500,4.3133125,9.794822692871094,0.4939919412136078,-0.2313709408044815
1742766212190107000,4.31810693359375,9.794880867004395,0.49163803458213806,-0.23389214277267456
1742766212194901200,4.3229013671875,9.79487133026123,0.4908658564090729,-0.23590371012687683
1742766212199696000,4.32769580078125,9.79483699798584,0.49205002188682556,-0.23486106097698212
1742766212204490200,4.332490234375,9.794737815856934,0.49190545082092285,-0.2392496019601822
1742766212209284600,4.33728466796875,9.794647216796875,0.491494745016098,-0.2437836229801178
1742766212214079000,4.342078857421875,9.79452133178711,0.4940428137779236,-0.24368251860141754
1742766212218860000,4.346860107421875,9.794548988342285,0.4940762221813202,-0.24250981211662292
1742766212223668000,4.35166796875,9.79454517364502,0.4937951862812042,-0.24322070181369781
1742766212228462300,4.35646240234375,9.79454231262207,0.4924430847167969,-0.24607132375240326
1742766212233243400,4.361243408203125,9.794590950012207,0.4910047650337219,-0.24697430431842804
1742766212238051300,4.36605126953125,9.794687271118164,0.490175724029541,-0.24483609199523926
1742766212242845700,4.370845703125,9.794649124145508,0.4893922805786133,-0.24787934124469757
1742766212247640000,4.37564013671875,9.79458999633789,0.48824542760849,-0.2524418234825134
1742766212252434400,4.380434326171875,9.794570922851562,0.487436443567276,-0.2547456920146942
1742766212257229000,4.38522900390625,9.79460620880127,0.4879504144191742,-0.25240471959114075
1742766212262010000,4.390010009765625,9.794524192810059,0.4888465404510498,-0.25381937623023987
1742766212266817800,4.39481787109375,9.79442024230957,0.4889616370201111,-0.25761449337005615
1742766212271612200,4.399612060546875,9.794336318969727,0.4901590943336487,-0.2584958076477051
1742766212276406800,4.40440673828125,9.794326782226562,0.4896332621574402,-0.25988224148750305
1742766212281201200,4.409201171875,9.794373512268066,0.4881821572780609,-0.26082631945610046
1742766212285995500,4.41399560546875,9.794426918029785,0.48625901341438293,-0.2624022960662842
1742766212290790000,4.418789794921875,9.794462203979492,0.4834062159061432,-0.26634499430656433
1742766212295584500,4.42358447265625,9.79439640045166,0.4837518632411957,-0.26813068985939026
1742766212300379000,4.42837890625,9.794288635253906,0.4862123131752014,-0.26762083172798157
1742766212305173200,4.43317333984375,9.794251441955566,0.48532554507255554,-0.270552396774292
1742766212309967600,4.437967529296875,9.794312477111816,0.4838792681694031,-0.2709447741508484
1742766212314762200,4.44276220703125,9.794221878051758,0.48672693967819214,-0.2690996825695038
1742766212319543300,4.447543212890625,9.794068336486816,0.48707565665245056,-0.2740134298801422
1742766212324351000,4.45235107421875,9.794014930725098,0.4860830307006836,-0.27767181396484375
1742766212329145300,4.457145263671875,9.794046401977539,0.48687055706977844,-0.27515658736228943
1742766212333940000,4.46193994140625,9.794107437133789,0.48654666543006897,-0.27358633279800415
1742766212338734300,4.466734375,9.793939590454102,0.4873258173465729,-0.2781442403793335
1742766212343528700,4.47152880859375,9.79366683959961,0.4894052743911743,-0.284039705991745
1742766212348309800,4.476309814453125,9.793793678283691,0.487640380859375,-0.2827087640762329
1742766212353117700,4.48111767578125,9.793967247009277,0.4865162968635559,-0.2786030173301697
1742766212357912000,4.485912109375,9.793830871582031,0.4886053502559662,-0.2797431945800781
1742766212362693000,4.490693115234375,9.793606758117676,0.48899272084236145,-0.28680795431137085
1742766212367500800,4.495500732421875,9.793513298034668,0.48848211765289307,-0.2908622920513153
1742766212372295400,4.50029541015625,9.793600082397461,0.489379346370697,-0.2863769829273224
1742766212377076500,4.505076416015625,9.793608665466309,0.48892247676849365,-0.28688353300094604
1742766212381884200,4.50988427734375,9.793460845947266,0.4894893765449524,-0.29090484976768494
1742766212386678500,4.514678466796875,9.793150901794434,0.49394357204437256,-0.293804407119751
1742766212391459800,4.5194599609375,9.793086051940918,0.4932808578014374,-0.2970850467681885
1742766212396267500,4.524267578125,9.793267250061035,0.4907720386981964,-0.2952611744403839
1742766212401062000,4.529061767578125,9.79332160949707,0.4901881217956543,-0.294394314289093
1742766212405856500,4.5338564453125,9.793295860290527,0.48906588554382324,-0.29711297154426575
1742766212410651000,4.53865087890625,9.793185234069824,0.48783519864082336,-0.3027254045009613
1742766212415445200,4.5434453125,9.7931547164917,0.4881312847137451,-0.3032379746437073
1742766212420239600,4.548239501953125,9.79321002960205,0.48845162987709045,-0.30094829201698303
1742766212425034000,4.553033935546875,9.793256759643555,0.4867593050003052,-0.30216801166534424
1742766212429828600,4.55782861328125,9.793197631835938,0.4872072637081146,-0.3033604919910431
1742766212434623000,4.562623046875,9.792999267578125,0.4887015223503113,-0.3073086142539978
1742766212439417300,4.567417236328125,9.792916297912598,0.48902833461761475,-0.30943721532821655
1742766212444212000,4.5722119140625,9.79302978515625,0.488532155752182,-0.30662038922309875
1742766212448992800,4.57699267578125,9.793099403381348,0.4866422116756439,-0.30739274621009827
1742766212453800700,4.58180078125,9.793022155761719,0.4866112172603607,-0.3098941445350647
1742766212458595000,4.586594970703125,9.792839050292969,0.48724257946014404,-0.314657986164093
1742766212463389400,4.591389404296875,9.792943000793457,0.48477903008461,-0.31523334980010986
1742766212468184000,4.59618408203125,9.79301643371582,0.48430755734443665,-0.31366005539894104
1742766212472978400,4.600978515625,9.792871475219727,0.4869826138019562,-0.3140353560447693
1742766212477759500,4.605759521484375,9.792619705200195,0.48825615644454956,-0.3198576867580414
1742766212482567400,4.6105673828125,9.792556762695312,0.4865591824054718,-0.32437169551849365
1742766212487361800,4.61536181640625,9.792601585388184,0.4876371920108795,-0.32134851813316345
1742766212492142800,4.620142822265625,9.792591094970703,0.4879975914955139,-0.3211198151111603
1742766212496950500,4.624950439453125,9.792476654052734,0.48708271980285645,-0.32596293091773987
1742766212501745200,4.6297451171875,9.792288780212402,0.4899473488330841,-0.3273191452026367
1742766212506539500,4.63453955078125,9.792204856872559,0.49110645055770874,-0.32809966802597046
1742766212511334000,4.639333984375,9.792315483093262,0.48871564865112305,-0.3283483684062958
1742766212516128300,4.644128173828125,9.792377471923828,0.4872458279132843,-0.3286912739276886
1742766212520923000,4.6489228515625,9.792377471923828,0.48707786202430725,-0.32894396781921387
1742766212525717200,4.65371728515625,9.792364120483398,0.48629969358444214,-0.33048662543296814
1742766212530511600,4.65851171875,9.792313575744629,0.48657238483428955,-0.3315795063972473
1742766212535306000,4.663305908203125,9.792280197143555,0.48637405037879944,-0.3328743278980255
1742766212540100600,4.6681005859375,9.792263984680176,0.48521220684051514,-0.33501315116882324
1742766212544895000,4.67289501953125,9.792376518249512,0.4845677614212036,-0.33266162872314453
1742766212549676000,4.677676025390625,9.79231071472168,0.48517554998397827,-0.33373087644577026
1742766212554483700,4.682483642578125,9.792194366455078,0.4857809245586395,-0.3362537622451782
1742766212559278000,4.687278076171875,9.79212474822998,0.4871061146259308,-0.336355060338974
1742766212564072700,4.69207275390625,9.792216300964355,0.4852875769138336,-0.33630114793777466
1742766212568867000,4.6968671875,9.792301177978516,0.4833541810512543,-0.33663949370384216
1742766212573661400,4.701661376953125,9.792319297790527,0.4828491508960724,-0.3368145227432251
1742766212578456000,4.7064560546875,9.792290687561035,0.4821477234363556,-0.33865413069725037
1742766212583250400,4.71125048828125,9.792341232299805,0.4813750088214874,-0.33829525113105774
1742766212588044800,4.716044921875,9.792410850524902,0.48120033740997314,-0.33653008937835693
1742766212592825900,4.720825927734375,9.792411804199219,0.47981032729148865,-0.3384752571582794
1742766212597633800,4.7256337890625,9.79242992401123,0.4780258238315582,-0.340476393699646
1742766212602428200,4.73042822265625,9.792440414428711,0.4789047837257385,-0.3389321565628052
1742766212607222500,4.735222412109375,9.792470932006836,0.4773836135864258,-0.3402077555656433
1742766212612017000,4.740016845703125,9.792469024658203,0.4764827787876129,-0.3414945900440216
1742766212616811500,4.7448115234375,9.792390823364258,0.4793008863925934,-0.33981621265411377
1742766212621592600,4.749592529296875,9.792278289794922,0.47979623079299927,-0.3423284590244293
1742766212626400300,4.754400146484375,9.792325019836426,0.4769403040409088,-0.3449750542640686
1742766212631194600,4.759194580078125,9.792469024658203,0.47653210163116455,-0.34142953157424927
1742766212635976000,4.763975830078125,9.792591094970703,0.4757685959339142,-0.33898648619651794
1742766212640783600,4.76878369140625,9.792577743530273,0.4742119014263153,-0.34153223037719727
1742766212645578000,4.773577880859375,9.79246711730957,0.47570347785949707,-0.34264445304870605
1742766212650372400,4.778372314453125,9.792490005493164,0.4748023450374603,-0.34325316548347473
1742766212655167000,4.7831669921875,9.792652130126953,0.47236138582229614,-0.3419811725616455
1742766212659961300,4.78796142578125,9.792535781860352,0.4749269187450409,-0.3417562246322632
1742766212664742400,4.792742431640625,9.79224967956543,0.4776414930820465,-0.34614333510398865
1742766212669550000,4.797550048828125,9.79229736328125,0.47554442286491394,-0.3476741313934326
1742766212674344700,4.8023447265625,9.792478561401367,0.47536611557006836,-0.34277966618537903
1742766212679139000,4.80713916015625,9.79248332977295,0.4770580232143402,-0.34028157591819763
1742766212683933400,4.811933349609375,9.792284965515137,0.4766916036605835,-0.34646138548851013
1742766212688728000,4.81672802734375,9.792293548583984,0.47602447867393494,-0.34714335203170776
1742766212693522400,4.8215224609375,9.792447090148926,0.47554126381874084,-0.3434453308582306
1742766212698316800,4.82631689453125,9.792394638061523,0.4758628010749817,-0.3444725275039673
1742766212703111200,4.831111083984375,9.792254447937012,0.47772565484046936,-0.3458864390850067
1742766212707892200,4.835892333984375,9.792295455932617,0.47708624601364136,-0.34560319781303406
1742766212712700200,4.8407001953125,9.792349815368652,0.47559884190559387,-0.3461173176765442
1742766212717494500,4.84549462890625,9.79233169555664,0.4770348072052002,-0.3446541726589203
1742766212722289000,4.850288818359375,9.792234420776367,0.47819650173187256,-0.34579214453697205
1742766212727083500,4.85508349609375,9.792119979858398,0.47905370593070984,-0.3478465676307678
1742766212731878000,4.8598779296875,9.791990280151367,0.4823261797428131,-0.3469753563404083
1742766212736672300,4.86467236328125,9.791962623596191,0.48319002985954285,-0.3465576767921448
1742766212741466600,4.869466552734375,9.79202651977539,0.48059436678886414,-0.3483715355396271
1742766212746261200,4.87426123046875,9.79207992553711,0.48032817244529724,-0.34722423553466797
1742766212751042300,4.879042236328125,9.792119026184082,0.4810834527015686,-0.3450637757778168
1742766212755850000,4.88385009765625,9.792094230651855,0.48073142766952515,-0.3462657332420349
1742766212760644400,4.888644287109375,9.792004585266113,0.48183873295783997,-0.34724295139312744
1742766212765439000,4.89343896484375,9.792072296142578,0.4818240702152252,-0.345363587141037
1742766212770233300,4.8982333984375,9.792070388793945,0.48186859488487244,-0.3453555107116699
1742766212775027700,4.90302783203125,9.791908264160156,0.4843862056732178,-0.3464324176311493
1742766212779822000,4.907822021484375,9.791820526123047,0.4858931303024292,-0.3468015491962433
1742766212784616700,4.91261669921875,9.791958808898926,0.4840576648712158,-0.34546419978141785
1742766212789411000,4.9174111328125,9.791865348815918,0.4865669012069702,-0.34457653760910034
1742766212794192100,4.922192138671875,9.791642189025879,0.4897671043872833,-0.3463740944862366
1742766212798999800,4.926999755859375,9.791611671447754,0.48863685131073,-0.3488031327724457
1742766212803794400,4.93179443359375,9.791686058044434,0.48856687545776367,-0.34684282541275024
1742766212808575500,4.936575439453125,9.791719436645508,0.489846408367157,-0.3440876305103302
1742766212813383200,4.941383056640625,9.791631698608398,0.48955389857292175,-0.3469824492931366
1742766212818177500,4.946177490234375,9.79155158996582,0.49155598878860474,-0.3463885486125946
1742766212822958800,4.950958740234375,9.791589736938477,0.49204781651496887,-0.3446354866027832
1742766212827766500,4.9557666015625,9.791631698608398,0.49094098806381226,-0.3450239598751068
1742766212832561000,4.960560791015625,9.791459083557129,0.493895024061203,-0.3456879258155823
1742766212837342000,4.965342041015625,9.791189193725586,0.496735155582428,-0.3492636978626251
1742766212842150000,4.97014990234375,9.791277885437012,0.49685290455818176,-0.3466014564037323
1742766212846944300,4.9749443359375,9.79128646850586,0.4981820583343506,-0.3444443643093109
1742766212851725300,4.979725341796875,9.791158676147461,0.4994699954986572,-0.3462086617946625
1742766212856533000,4.984532958984375,9.79098892211914,0.49979400634765625,-0.3505067527294159
1742766212861327600,4.98932763671875,9.791123390197754,0.49972736835479736,-0.3468177318572998
1742766212866122000,4.9941220703125,9.79115104675293,0.500287652015686,-0.3452266752719879
1742766212870916400,4.998916259765625,9.791037559509277,0.5001687407493591,-0.3486105501651764
1742766212875711000,5.0037109375,9.790977478027344,0.5013824701309204,-0.348550945520401
1742766212880505300,5.00850537109375,9.790985107421875,0.5017293691635132,-0.3478354811668396
1742766212885299700,5.0132998046875,9.790987968444824,0.5011790990829468,-0.34853532910346985
1742766212890094000,5.018093994140625,9.790884017944336,0.5029756426811218,-0.3488815426826477
1742766212894875100,5.022875244140625,9.790773391723633,0.5041300058364868,-0.35032039880752563
1742766212899683000,5.02768310546875,9.790719985961914,0.5042019486427307,-0.3516996502876282
1742766212904477400,5.0324775390625,9.790666580200195,0.5062902569770813,-0.3501942455768585
1742766212909271800,5.037271728515625,9.790655136108398,0.507104754447937,-0.349333256483078
1742766212914066400,5.04206640625,9.790669441223145,0.5048782825469971,-0.3521341383457184
1742766212918860800,5.04686083984375,9.790661811828613,0.5053509473800659,-0.3516848683357239
1742766212923641900,5.051641845703125,9.790769577026367,0.5054340958595276,-0.3485327363014221
1742766212928449500,5.056449462890625,9.790770530700684,0.5033462643623352,-0.351518839597702
1742766212933244200,5.061244140625,9.790738105773926,0.5040321350097656,-0.3514280617237091
1742766212938038500,5.06603857421875,9.79073715209961,0.5043025016784668,-0.35108935832977295
1742766212942833000,5.0708330078125,9.790786743164062,0.5034559965133667,-0.3509174585342407
1742766212947627300,5.075627197265625,9.790702819824219,0.5045285820960999,-0.3517017662525177
1742766212952422000,5.080421875,9.790614128112793,0.5049040913581848,-0.35363471508026123
1742766212957216300,5.08521630859375,9.790818214416504,0.5037264227867126,-0.34965014457702637
1742766212962010600,5.0900107421875,9.790773391723633,0.5049112439155579,-0.3491854965686798
1742766212966791700,5.094791748046875,9.790571212768555,0.5057878494262695,-0.35355710983276367
1742766212971599600,5.099599609375,9.790489196777344,0.5042622089385986,-0.3579792082309723
1742766212976394000,5.10439404296875,9.790620803833008,0.5025801062583923,-0.35675886273384094
1742766212981175000,5.109175048828125,9.790732383728027,0.5028179883956909,-0.3533158004283905
1742766212985982700,5.113982666015625,9.790728569030762,0.5015277862548828,-0.35526853799819946
1742766212990777300,5.11877734375,9.790644645690918,0.5020914077758789,-0.35678720474243164
1742766212995558400,5.123558349609375,9.790611267089844,0.5031810402870178,-0.35617321729660034
1742766213000366000,5.128365966796875,9.790619850158691,0.5027353167533875,-0.35654217004776
1742766213005160400,5.133160400390625,9.790693283081055,0.5024452209472656,-0.35493969917297363
1742766213009955000,5.137955078125,9.790698051452637,0.5013841390609741,-0.35629910230636597
1742766213014749400,5.14274951171875,9.790672302246094,0.5004392862319946,-0.35834166407585144
1742766213019543800,5.147543701171875,9.790543556213379,0.5034320950508118,-0.3576608896255493
1742766213024324900,5.152324951171875,9.790453910827637,0.5038488507270813,-0.35952210426330566
1742766213029132800,5.1571328125,9.79053783416748,0.5003075003623962,-0.36217036843299866
1742766213033927200,5.16192724609375,9.790584564208984,0.5006347298622131,-0.36046135425567627
1742766213038708200,5.166708251953125,9.790531158447266,0.5023531913757324,-0.35951000452041626
1742766213043516000,5.171515869140625,9.790520668029785,0.5007975697517395,-0.3619503676891327
1742766213048310500,5.176310546875,9.790634155273438,0.4988681674003601,-0.36155909299850464
1742766213053091600,5.181091552734375,9.790740966796875,0.49875837564468384,-0.3588119149208069
1742766213057899300,5.185899169921875,9.790743827819824,0.49844568967819214,-0.3591645359992981
1742766213062694000,5.19069384765625,9.790616035461426,0.49901407957077026,-0.3618580400943756
1742766213067488300,5.19548828125,9.790495872497559,0.49956560134887695,-0.3643205761909485
1742766213072282600,5.20028271484375,9.790550231933594,0.4985448718070984,-0.36426255106925964
1742766213077077000,5.205076904296875,9.790549278259277,0.49932825565338135,-0.3632239103317261
1742766213081858000,5.209858154296875,9.790506362915039,0.4997195303440094,-0.36383241415023804
1742766213086666000,5.214666015625,9.79055118560791,0.4963090419769287,-0.3672659993171692
1742766213091460400,5.21946044921875,9.790684700012207,0.4951799809932709,-0.365244597196579
1742766213096241400,5.224241455078125,9.790716171264648,0.49535059928894043,-0.3641811013221741
1742766213101049300,5.22904931640625,9.790717124938965,0.4935244917869568,-0.3665967583656311
1742766213105843700,5.23384375,9.790806770324707,0.49293088912963867,-0.36500903964042664
1742766213110624800,5.238624755859375,9.790769577026367,0.49319830536842346,-0.3656465709209442
1742766213115432400,5.243432373046875,9.790675163269043,0.49202263355255127,-0.3697132468223572
1742766213120227000,5.24822705078125,9.790704727172852,0.4915426969528198,-0.3695985674858093
1742766213125021400,5.253021484375,9.790814399719238,0.49044322967529297,-0.3681502938270569
1742766213129815800,5.25781591796875,9.790878295898438,0.48856356739997864,-0.36894550919532776
1742766213134610200,5.262610107421875,9.79074764251709,0.4908773899078369,-0.36934301257133484
1742766213139391200,5.26739111328125,9.790584564208984,0.4933926463127136,-0.3703089654445648
1742766213144199200,5.27219921875,9.790789604187012,0.48897480964660645,-0.3707468509674072
1742766213148993500,5.27699365234375,9.790956497192383,0.48726990818977356,-0.3685879409313202
1742766213153774600,5.281774658203125,9.790843963623047,0.48932507634162903,-0.3688492178916931
1742766213158582500,5.28658251953125,9.79076099395752,0.4881020188331604,-0.3726359009742737
1742766213163377000,5.291376953125,9.79097843170166,0.48494213819503784,-0.3710472881793976
1742766213168171300,5.296171142578125,9.791119575500488,0.4855669140815735,-0.3664866089820862
1742766213172966000,5.3009658203125,9.790960311889648,0.48646804690361023,-0.36952313780784607
1742766213177760300,5.30576025390625,9.790709495544434,0.48704230785369873,-0.3753780722618103
1742766213182554600,5.3105546875,9.790854454040527,0.4877887964248657,-0.3705979287624359
1742766213187349000,5.315348876953125,9.790904998779297,0.4869251549243927,-0.37040647864341736
1742766213192143400,5.320143310546875,9.790738105773926,0.4877592921257019,-0.3736969232559204
1742766213196924700,5.324924560546875,9.790504455566406,0.4904192388057709,-0.376323401927948
1742766213201732400,5.329732421875,9.790629386901855,0.48674824833869934,-0.377840518951416
1742766213206526700,5.334526611328125,9.790908813476562,0.4842695891857147,-0.37377312779426575
1742766213211307800,5.339307861328125,9.790897369384766,0.48589491844177246,-0.3719347417354584
1742766213216115700,5.34411572265625,9.79066276550293,0.4879056513309479,-0.37547415494918823
1742766213220910000,5.34891015625,9.790621757507324,0.4879770874977112,-0.3764542043209076
1742766213225704400,5.353704345703125,9.790719032287598,0.4864243268966675,-0.37591978907585144
1742766213230498800,5.358498779296875,9.790838241577148,0.4860718846321106,-0.37327563762664795
1742766213235293400,5.36329345703125,9.79076862335205,0.48616912961006165,-0.3749457895755768
1742766213240087800,5.368087890625,9.790581703186035,0.48703819513320923,-0.3786998689174652
1742766213244882200,5.372882080078125,9.790675163269043,0.4870133399963379,-0.37630611658096313
1742766213249676800,5.3776767578125,9.790788650512695,0.4869517982006073,-0.3734356164932251
1742766213254471200,5.38247119140625,9.79065990447998,0.48771584033966064,-0.3757978677749634
1742766213259265500,5.387265625,9.790657997131348,0.48608100414276123,-0.37794923782348633
1742766213264060000,5.392059814453125,9.790809631347656,0.4851822555065155,-0.37517622113227844
1742766213268841000,5.396841064453125,9.790806770324707,0.4857451915740967,-0.37452059984207153
1742766213273649000,5.40164892578125,9.790773391723633,0.4845225512981415,-0.3769738972187042
1742766213278443300,5.406443359375,9.790872573852539,0.48439306020736694,-0.3745538294315338
1742766213283224300,5.411224365234375,9.79085922241211,0.4849344789981842,-0.37419945001602173
1742766213288032300,5.4160322265625,9.790785789489746,0.48428279161453247,-0.3769400715827942
1742766213292826600,5.42082666015625,9.790718078613281,0.4844951927661896,-0.3784392774105072
1742766213297621000,5.42562109375,9.790814399719238,0.48495104908943176,-0.3753502666950226
1742766213302415600,5.43041552734375,9.790912628173828,0.4839649498462677,-0.3740576505661011
1742766213307210000,5.4352099609375,9.790861129760742,0.4848536550998688,-0.37425321340560913
1742766213311991000,5.439990966796875,9.790690422058105,0.48675909638404846,-0.3762451112270355
1742766213316798700,5.444798828125,9.790840148925781,0.4825921952724457,-0.37769973278045654
1742766213321593000,5.449593017578125,9.79110336303711,0.4811561107635498,-0.37268123030662537
1742766213326374400,5.45437451171875,9.79094409942627,0.4840140640735626,-0.37315884232521057
1742766213331182000,5.45918212890625,9.790773391723633,0.4838532507419586,-0.37781980633735657
1742766213335976400,5.4639765625,9.791045188903809,0.4813801646232605,-0.3739258646965027
1742766213340771000,5.46877099609375,9.791105270385742,0.4824427366256714,-0.3709537088871002
1742766213345565400,5.4735654296875,9.790939331054688,0.4833184480667114,-0.3741798400878906
1742766213350359800,5.47835986328125,9.79080867767334,0.48302140831947327,-0.37798020243644714
1742766213355154200,5.483154296875,9.790849685668945,0.48386093974113464,-0.37583887577056885
1742766213359948800,5.48794873046875,9.790946960449219,0.48408761620521545,-0.3729931712150574
1742766213364743200,5.4927431640625,9.790879249572754,0.48477110266685486,-0.3738860785961151
1742766213369524200,5.497524169921875,9.790703773498535,0.48690342903137207,-0.3757062554359436
1742766213374332000,5.502331787109375,9.790741920471191,0.4852770268917084,-0.37680667638778687
1742766213379126500,5.50712646484375,9.790850639343262,0.4837561845779419,-0.37594208121299744
1742766213383907600,5.511907470703125,9.790895462036133,0.48458802700042725,-0.3736928701400757
1742766213388715300,5.51671533203125,9.790888786315918,0.48438936471939087,-0.3741338849067688
1742766213393509600,5.521509521484375,9.790881156921387,0.48406872153282166,-0.3747359812259674
1742766213398304300,5.52630419921875,9.790952682495117,0.4838995933532715,-0.37309110164642334
1742766213403098600,5.5310986328125,9.790982246398926,0.48400235176086426,-0.37218278646469116
1742766213407893000,5.53589306640625,9.790868759155273,0.4852622151374817,-0.3735247254371643
1742766213412687400,5.540687255859375,9.79076099395752,0.4862862825393677,-0.37499985098838806
1742766213417482000,5.54548193359375,9.790914535522461,0.4852168560028076,-0.372376948595047
1742766213422276400,5.5502763671875,9.790955543518066,0.4853014051914215,-0.37119260430336
1742766213427057400,5.555057373046875,9.79078483581543,0.4868854582309723,-0.37359899282455444
1742766213431865000,5.559864990234375,9.790853500366211,0.485067754983902,-0.3741729259490967
1742766213436659700,5.56465966796875,9.791086196899414,0.4834068715572357,-0.37021514773368835
1742766213441454000,5.5694541015625,9.791114807128906,0.483877569437027,-0.3688308894634247
1742766213446248400,5.57424853515625,9.791072845458984,0.4829843044281006,-0.3711167871952057
1742766213451043000,5.57904296875,9.791091918945312,0.48190838098526,-0.37202808260917664
1742766213455837400,5.58383740234375,9.79110050201416,0.4827220141887665,-0.37073957920074463
1742766213460631800,5.5886318359375,9.791204452514648,0.4817754626274109,-0.36920666694641113
1742766213465426200,5.59342626953125,9.791226387023926,0.48003828525543213,-0.37088263034820557
1742766213470207200,5.598207275390625,9.79117202758789,0.4813905358314514,-0.37056687474250793
1742766213475015200,5.60301513671875,9.791080474853516,0.4825223684310913,-0.3715267777442932
1742766213479809500,5.6078095703125,9.791288375854492,0.4811401963233948,-0.3678167164325714
1742766213484604000,5.61260400390625,9.791350364685059,0.48122191429138184,-0.3660396337509155
1742766213489398500,5.6173984375,9.791264533996582,0.47982487082481384,-0.37013766169548035
1742766213494193000,5.62219287109375,9.7913179397583,0.4786372780799866,-0.3702869117259979
1742766213498987300,5.6269873046875,9.79147720336914,0.4778859317302704,-0.36703500151634216
1742766213503781600,5.63178173828125,9.791518211364746,0.4777480959892273,-0.3661101162433624
1742766213508576300,5.636576171875,9.791489601135254,0.4772944152355194,-0.3674793243408203
1742766213513370600,5.64137060546875,9.791449546813965,0.47792482376098633,-0.3677222728729248
1742766213518165000,5.6461650390625,9.791556358337402,0.478459894657135,-0.3641452491283417
1742766213522959400,5.65095947265625,9.791470527648926,0.47832584381103516,-0.3666260540485382
1742766213527754000,5.65575390625,9.791388511657715,0.4785993695259094,-0.3684646785259247
1742766213532548400,5.66054833984375,9.791353225708008,0.4796296954154968,-0.3680410087108612
1742766213537342700,5.6653427734375,9.791289329528809,0.4796058237552643,-0.36979302763938904
1742766213542123800,5.670123779296875,9.791269302368164,0.48022884130477905,-0.3695118725299835
1742766213546931700,5.674931640625,9.791362762451172,0.4779406785964966,-0.3699990212917328
1742766213551726000,5.67972607421875,9.791435241699219,0.47706547379493713,-0.3692111670970917
1742766213556520400,5.6845205078125,9.791366577148438,0.48007848858833313,-0.36711087822914124
1742766213561314800,5.689314697265625,9.791410446166992,0.47919872403144836,-0.36711061000823975
1742766213566109400,5.694109375,9.791476249694824,0.4778757095336914,-0.3670569360256195
1742766213570890500,5.698890380859375,9.791427612304688,0.4796615242958069,-0.36604535579681396
1742766213575698200,5.7036982421875,9.791365623474121,0.48023271560668945,-0.36693859100341797
1742766213580492800,5.708492919921875,9.791479110717773,0.4779609441757202,-0.36688169836997986
1742766213585273900,5.71327392578125,9.791542053222656,0.4788513779640198,-0.3640238046646118
1742766213590081500,5.71808154296875,9.79144287109375,0.4814167022705078,-0.3633311688899994
1742766213594876000,5.7228759765625,9.79141616821289,0.4807519018650055,-0.3648906946182251
1742766213599670300,5.727670166015625,9.791496276855469,0.48042771220207214,-0.36318179965019226
1742766213604465000,5.73246484375,9.791579246520996,0.4797116219997406,-0.36187732219696045
1742766213609259300,5.73725927734375,9.791749000549316,0.47726649045944214,-0.3605253994464874
1742766213614040300,5.742040283203125,9.79173469543457,0.4776202142238617,-0.3604426980018616
1742766213618848300,5.74684814453125,9.791677474975586,0.47947826981544495,-0.35953038930892944
1742766213623642600,5.751642578125,9.791722297668457,0.4774011969566345,-0.36106255650520325
1742766213628437000,5.75643701171875,9.791800498962402,0.4758192300796509,-0.36101898550987244
1742766213633231600,5.761231689453125,9.791826248168945,0.4777429401874542,-0.3577793836593628
1742766213638026000,5.76602587890625,9.791781425476074,0.4774227738380432,-0.3594379425048828
1742766213642820400,5.7708203125,9.791847229003906,0.47646522521972656,-0.35890984535217285
1742766213647614700,5.77561474609375,9.791913032531738,0.47769400477409363,-0.35545819997787476
1742766213652409000,5.7804091796875,9.791918754577637,0.47764769196510315,-0.3553673326969147
1742766213657203700,5.78520361328125,9.791969299316406,0.4756920635700226,-0.3565945327281952
1742766213661998000,5.789998046875,9.792078971862793,0.47412076592445374,-0.35567182302474976
1742766213666792400,5.79479248046875,9.792197227478027,0.4737239181995392,-0.3529597818851471
1742766213671587000,5.799587158203125,9.7920503616333,0.474520742893219,-0.35591909289360046
1742766213676381400,5.80438134765625,9.792098045349121,0.4740036725997925,-0.3553260564804077
1742766213681175800,5.80917578125,9.792318344116211,0.4727471172809601,-0.35087794065475464
1742766213685970200,5.81397021484375,9.792254447937012,0.47256892919540405,-0.35291004180908203
1742766213690764500,5.8187646484375,9.792037963867188,0.4740896224975586,-0.35684171319007874
1742766213695559200,5.82355908203125,9.792097091674805,0.4733271598815918,-0.3562436103820801
1742766213700353500,5.828353515625,9.792166709899902,0.47296783328056335,-0.354783296585083
1742766213705148000,5.83314794921875,9.792122840881348,0.47432848811149597,-0.3541959822177887
1742766213709942500,5.837942626953125,9.79189395904541,0.476474791765213,-0.3576142489910126
1742766213714737000,5.84273681640625,9.791875839233398,0.4770198464393616,-0.35739511251449585
1742766213719531300,5.84753125,9.791975021362305,0.4755823612213135,-0.35659900307655334
1742766213724325600,5.85232568359375,9.792083740234375,0.47420814633369446,-0.3554261326789856
1742766213729106700,5.857106689453125,9.791996955871582,0.4757709503173828,-0.3557499945163727
1742766213733914600,5.86191455078125,9.79183578491211,0.47636592388153076,-0.359361469745636
1742766213738709000,5.866708984375,9.79188060760498,0.4754958748817444,-0.35927891731262207
1742766213743503400,5.87150341796875,9.7920560836792,0.47518470883369446,-0.3548833131790161
1742766213748298000,5.876298095703125,9.791967391967773,0.47570106387138367,-0.35663411021232605
1742766213753092400,5.88109228515625,9.791635513305664,0.4774385392665863,-0.3633763790130615
1742766213757873400,5.885873291015625,9.791680335998535,0.47837722301483154,-0.3609246015548706
1742766213762681300,5.890681396484375,9.791810035705566,0.47830891609191895,-0.35748276114463806
1742766213767475700,5.895475830078125,9.791768074035645,0.47738373279571533,-0.35983890295028687
1742766213772270000,5.90027001953125,9.791670799255371,0.47814321517944336,-0.361486554145813
1742766213777064400,5.905064453125,9.791696548461914,0.47814178466796875,-0.36078551411628723
1742766213781858800,5.90985888671875,9.791890144348145,0.47547608613967896,-0.3590472638607025
1742766213786640100,5.91464013671875,9.791932106018066,0.47527453303337097,-0.35816413164138794
1742766213791447800,5.91944775390625,9.791838645935059,0.47707605361938477,-0.35833442211151123
1742766213796242200,5.9242421875,9.791841506958008,0.4756222367286682,-0.36019405722618103
1742766213801036800,5.929036865234375,9.791913032531738,0.4746261239051819,-0.3595673441886902
1742766213805831200,5.9338310546875,9.791940689086914,0.47532781958580017,-0.3578653335571289
1742766213810625500,5.93862548828125,9.791885375976562,0.4742262065410614,-0.36083582043647766
1742766213815406600,5.943406494140625,9.79189682006836,0.4739202558994293,-0.3609226942062378
1742766213820214500,5.948214599609375,9.791892051696777,0.4757983982563019,-0.35858669877052307
1742766213825009000,5.9530087890625,9.791873931884766,0.47472888231277466,-0.36047378182411194
1742766213829803300,5.95780322265625,9.79189395904541,0.47363927960395813,-0.36137476563453674
1742766213834597600,5.96259765625,9.791975021362305,0.4724501073360443,-0.36072680354118347
1742766213839392300,5.967392333984375,9.79206371307373,0.4704977869987488,-0.3608781099319458
1742766213844186600,5.9721865234375,9.792121887207031,0.4704156219959259,-0.3593977689743042
1742766213848981000,5.97698095703125,9.792052268981934,0.471871554851532,-0.35937991738319397
1742766213853775600,5.981775634765625,9.792160987854004,0.4693886637687683,-0.35967737436294556
1742766213858556400,5.986556396484375,9.792157173156738,0.4698542654514313,-0.35917094349861145
1742766213863364400,5.9913642578125,9.792041778564453,0.47206854820251465,-0.3594164252281189
1742766213868158700,5.99615869140625,9.7919340133667,0.47159290313720703,-0.3629462420940399
1742766213872953000,6.000953125,9.792040824890137,0.4706041216850281,-0.36136090755462646
1742766213877747700,6.005747802734375,9.792030334472656,0.47214627265930176,-0.3596349060535431
1742766213882542000,6.0105419921875,9.791882514953613,0.47359374165534973,-0.3617315888404846
1742766213887336400,6.01533642578125,9.791831016540527,0.47415751218795776,-0.3623993992805481
1742766213892131000,6.020131103515625,9.791885375976562,0.4736897349357605,-0.3615197241306305
1742766213896925400,6.024925537109375,9.791952133178711,0.47194916009902954,-0.3620050847530365
1742766213901719800,6.0297197265625,9.791970252990723,0.47189995646476746,-0.3615589439868927
1742766213906514200,6.03451416015625,9.791898727416992,0.4732767641544342,-0.3617025315761566
1742766213911308800,6.039308837890625,9.791949272155762,0.47210195660591125,-0.36190441250801086
1742766213916089900,6.04408984375,9.791961669921875,0.472158819437027,-0.36147335171699524
1742766213920897500,6.0488974609375,9.791833877563477,0.4741758108139038,-0.36227288842201233
1742766213925692000,6.05369189453125,9.79155445098877,0.4751431345939636,-0.3685155212879181
1742766213930473200,6.05847314453125,9.791505813598633,0.4751688838005066,-0.36977139115333557
1742766213935281000,6.063281005859375,9.791764259338379,0.4760883152484894,-0.36164483428001404
1742766213940075300,6.0680751953125,9.791776657104492,0.4757780134677887,-0.3617309629917145
1742766213944869600,6.07286962890625,9.79159927368164,0.47587016224861145,-0.3663930296897888
1742766213949664300,6.077664306640625,9.791553497314453,0.4770071804523468,-0.3661397099494934
1742766213954458600,6.082458740234375,9.79180908203125,0.4736306369304657,-0.36366474628448486
1742766213959239700,6.08723974609375,9.791975021362305,0.4713100492954254,-0.36221688985824585
1742766213964047400,6.09204736328125,9.7919340133667,0.4732774496078491,-0.3607439398765564
1742766213968842000,6.096842041015625,9.791802406311035,0.4739571213722229,-0.3634147644042969
1742766213973623000,6.101623046875,9.791862487792969,0.47233182191848755,-0.3639087677001953
1742766213978430700,6.1064306640625,9.791974067687988,0.47300490736961365,-0.36002492904663086
1742766213983225300,6.111225341796875,9.79184341430664,0.47339197993278503,-0.36305516958236694
1742766213988019700,6.116019775390625,9.791706085205078,0.47358018159866333,-0.366496741771698
1742766213992814000,6.12081396484375,9.791787147521973,0.47398704290390015,-0.3638026714324951
1742766213997608400,6.1256083984375,9.791911125183105,0.47237899899482727,-0.36253681778907776
1742766214002403000,6.130403076171875,9.79196548461914,0.470881849527359,-0.36304500699043274
1742766214007197400,6.135197509765625,9.791900634765625,0.47240662574768066,-0.3627852499485016
1742766214011991800,6.13999169921875,9.792058944702148,0.47022053599357605,-0.36135756969451904
1742766214016786200,6.1447861328125,9.792157173156738,0.46769750118255615,-0.3619837462902069
1742766214021580800,6.149580810546875,9.79205322265625,0.4696093797683716,-0.36231163144111633
1742766214026375200,6.154375244140625,9.791983604431152,0.4709359109401703,-0.36246731877326965
1742766214031156200,6.15915625,9.792098999023438,0.4687306582927704,-0.36222735047340393
1742766214035964200,6.163964111328125,9.79215145111084,0.46844786405563354,-0.36114442348480225
1742766214040758500,6.168758544921875,9.79203987121582,0.4693650007247925,-0.36298128962516785
1742766214045553000,6.173552978515625,9.791910171508789,0.4703921377658844,-0.3651491403579712
1742766214050347300,6.17834716796875,9.791900634765625,0.4719274342060089,-0.3633995056152344
1742766214055141600,6.1831416015625,9.791975021362305,0.47066426277160645,-0.3630487024784088
1742766214059923000,6.1879228515625,9.791967391967773,0.46999591588974,-0.36411982774734497
