time,seconds_elapsed,z,y,x
1742766207969283600,0.09728369140625,-0.17485502362251282,-0.058335911482572556,-0.346808522939682
1742766207971680800,0.0996806640625,-0.1785201132297516,-0.06322269141674042,-0.35627666115760803
1742766207974078000,0.102077880859375,-0.18218518793582916,-0.06826218217611313,-0.3671191930770874
1742766207976475100,0.10447509765625,-0.18585027754306793,-0.07070557028055191,-0.3765873312950134
1742766207978872300,0.106872314453125,-0.18707197904586792,-0.0719272643327713,-0.381474107503891
1742766207981269500,0.10926953125,-0.1882936656475067,-0.06948387622833252,-0.3874298632144928
1742766207983666700,0.111666748046875,-0.1895153671503067,-0.06444438546895981,-0.3897205591201782
1742766207986064000,0.11406396484375,-0.18707197904586792,-0.0594048947095871,-0.3897205591201782
1742766207988461000,0.1164609375,-0.19088977575302124,-0.054518118500709534,-0.390942245721817
1742766207990858200,0.118858154296875,-0.19211146235466003,-0.04947862774133682,-0.38956785202026367
1742766207993255700,0.121255615234375,-0.19211146235466003,-0.04825693368911743,-0.3836120665073395
1742766207995652900,0.12365283203125,-0.19211146235466003,-0.04703523963689804,-0.37536564469337463
1742766207998050000,0.126050048828125,-0.19318044185638428,-0.04840964451432228,-0.3694098889827728
1742766208000447200,0.128447265625,-0.19562382996082306,-0.04856235533952713,-0.35856732726097107
1742766208002844400,0.130844482421875,-0.19806721806526184,-0.04978405311703682,-0.3503209054470062
1742766208005241600,0.13324169921875,-0.19913621246814728,-0.05360184609889984,-0.3384093940258026
1742766208007638800,0.135638671875,-0.20035789906978607,-0.05375456064939499,-0.3252761662006378
1742766208010036000,0.138035888671875,-0.20157960057258606,-0.05757235363125801,-0.3133646547794342
1742766208012433400,0.140433349609375,-0.2038702666759491,-0.06139015033841133,-0.3002314269542694
1742766208014830600,0.14283056640625,-0.20631365478038788,-0.06520794332027435,-0.2883199155330658
1742766208017227800,0.145227783203125,-0.20738264918327332,-0.07040014863014221,-0.275186687707901
1742766208019625000,0.147625,-0.2098260372877121,-0.07543963938951492,-0.2632751762866974
1742766208022022100,0.150022216796875,-0.21089501678943634,-0.08170082420110703,-0.25258535146713257
1742766208024419300,0.15241943359375,-0.20967331528663635,-0.08796200156211853,-0.24433889985084534
1742766208026816500,0.15481640625,-0.208298921585083,-0.09559759497642517,-0.23364907503128052
1742766208029213700,0.157213623046875,-0.20707722008228302,-0.10185877978801727,-0.22524993121623993
1742766208031611100,0.159611083984375,-0.2044811248779297,-0.11178504675626755,-0.2157817929983139
1742766208034008300,0.16200830078125,-0.20432840287685394,-0.11942064017057419,-0.20875705778598785
1742766208036405500,0.164405517578125,-0.20677179098129272,-0.13056860864162445,-0.20157960057258606
1742766208038802700,0.166802734375,-0.20906247198581696,-0.144465371966362,-0.1910424828529358
1742766208041199900,0.169199951171875,-0.2101314514875412,-0.15943112969398499,-0.18630841374397278
1742766208043597000,0.17159716796875,-0.2160872220993042,-0.17454960942268372,-0.18279604613780975
1742766208045994200,0.173994140625,-0.2208212912082672,-0.1907370537519455,-0.18050536513328552
1742766208048391400,0.176391357421875,-0.2304421216249466,-0.20707722008228302,-0.18065807223320007
1742766208050788600,0.17878857421875,-0.23899398744106293,-0.222042977809906,-0.18310146033763885
1742766208053185800,0.181185791015625,-0.24494975805282593,-0.23334364593029022,-0.18554484844207764
1742766208055583200,0.183583251953125,-0.2498365342617035,-0.24220094084739685,-0.18554484844207764
1742766208057980400,0.18598046875,-0.2570139765739441,-0.24724042415618896,-0.1844758689403534
1742766208060377600,0.188377685546875,-0.26190075278282166,-0.2522799074649811,-0.18569757044315338
1742766208062774800,0.19077490234375,-0.26434415578842163,-0.2522799074649811,-0.18798823654651642
1742766208065172000,0.193171875,-0.2680092453956604,-0.2522799074649811,-0.1916533261537552
1742766208067569200,0.195569091796875,-0.270452618598938,-0.2486148327589035,-0.19394400715827942
1742766208069966300,0.19796630859375,-0.26938363909721375,-0.2435753494501114,-0.2011214643716812
1742766208072363500,0.200363525390625,-0.27060532569885254,-0.23853585124015808,-0.20463383197784424
1742766208074761000,0.202760986328125,-0.27060532569885254,-0.2298312783241272,-0.20585553348064423
1742766208077158100,0.205158203125,-0.2695363461971283,-0.22097399830818176,-0.20570281147956848
1742766208079555300,0.207555419921875,-0.2707580327987671,-0.21226942539215088,-0.20570281147956848
1742766208081952500,0.209952392578125,-0.2707580327987671,-0.20616094768047333,-0.2044811248779297
1742766208084349700,0.212349609375,-0.26968905329704285,-0.1973036676645279,-0.20555010437965393
1742766208086747000,0.214746826171875,-0.26846736669540405,-0.1898207813501358,-0.20555010437965393
1742766208089144000,0.21714404296875,-0.2686200737953186,-0.1823379099369049,-0.20555010437965393
1742766208091541200,0.219541259765625,-0.2673983871936798,-0.17867282032966614,-0.20661908388137817
1742766208093938700,0.221938720703125,-0.26373329758644104,-0.17363333702087402,-0.21028417348861694
1742766208096336000,0.2243359375,-0.2602209448814392,-0.16859383881092072,-0.21257483959197998
1742766208098733000,0.226733154296875,-0.25655585527420044,-0.16599774360656738,-0.21257483959197998
1742766208101130200,0.229130126953125,-0.2492256760597229,-0.16217994689941406,-0.2160872220993042
1742766208103527400,0.23152734375,-0.24311721324920654,-0.15714046359062195,-0.21853061020374298
1742766208105924600,0.233924560546875,-0.23471805453300476,-0.1557660549879074,-0.21959958970546722
1742766208108321800,0.23632177734375,-0.22250111401081085,-0.15316994488239288,-0.217308908700943
1742766208110719000,0.238718994140625,-0.2151709496974945,-0.15301723778247833,-0.2160872220993042
1742766208113116200,0.2411162109375,-0.20661908388137817,-0.15546062588691711,-0.2113531529903412
1742766208115513300,0.243513427734375,-0.19684553146362305,-0.15912571549415588,-0.20661908388137817
1742766208117910500,0.24591064453125,-0.19180603325366974,-0.16279079020023346,-0.20539739727973938
1742766208120308000,0.248307861328125,-0.18691925704479218,-0.16660858690738678,-0.20188501477241516
1742766208122705200,0.250705078125,-0.1832541823387146,-0.17271706461906433,-0.19944162666797638
1742766208125102300,0.253102294921875,-0.17836740612983704,-0.18019993603229523,-0.19592925906181335
1742766208127499500,0.25549951171875,-0.17210622131824493,-0.183865025639534,-0.19119518995285034
1742766208129896700,0.257896728515625,-0.16721943020820618,-0.1889045089483261,-0.18646112084388733
1742766208132294000,0.2602939453125,-0.1623326539993286,-0.19256959855556488,-0.1817270666360855
1742766208134691000,0.262691162109375,-0.15622419118881226,-0.19379130005836487,-0.1757712960243225
1742766208137088500,0.265088623046875,-0.15118469297885895,-0.19745637476444244,-0.1698155403137207
1742766208139485700,0.267485595703125,-0.14751961827278137,-0.19883078336715698,-0.15912571549415588
1742766208141883000,0.2698828125,-0.14018943905830383,-0.19867807626724243,-0.15316994488239288
1742766208144280000,0.272280029296875,-0.1328592747449875,-0.19867807626724243,-0.14248012006282806
1742766208146677200,0.27467724609375,-0.12552911043167114,-0.20249587297439575,-0.13056860864162445
1742766208149074400,0.277074462890625,-0.11453386396169662,-0.20234315097332,-0.12094775587320328
1742766208151471600,0.2794716796875,-0.10582929104566574,-0.2047865390777588,-0.11392301321029663
1742766208153868800,0.281868896484375,-0.09605573117733002,-0.20341213047504425,-0.11025793105363846
1742766208156266200,0.284266357421875,-0.08399149775505066,-0.20219044387340546,-0.10674555599689484
1742766208158663400,0.286663330078125,-0.06933116167783737,-0.1957765519618988,-0.10430216789245605
1742766208161060600,0.289060546875,-0.05467082932591438,-0.18936264514923096,-0.10781454294919968
1742766208163457800,0.291457763671875,-0.041384901851415634,-0.1779092699289322,-0.11254860460758209
1742766208165855000,0.29385498046875,-0.028098974376916885,-0.16156910359859467,-0.11835165321826935
1742766208168252200,0.296252197265625,-0.01725643500685692,-0.14767232537269592,-0.12781979143619537
1742766208170649300,0.2986494140625,-0.005344913341104984,-0.12873606383800507,-0.14095300436019897
1742766208173046500,0.301046630859375,0.0018325417768210173,-0.10857810080051422,-0.15622419118881226
1742766208175443700,0.303443603515625,0.009009997360408306,-0.08842013776302338,-0.1704263836145401
1742766208177841000,0.3058408203125,0.013591351918876171,-0.06719319522380829,-0.18462859094142914
1742766208180238300,0.30823828125,0.01954711228609085,-0.04337015375494957,-0.197609081864357
1742766208182635500,0.310635498046875,0.024281177669763565,-0.023212196305394173,-0.21303297579288483
1742766208185032700,0.31303271484375,0.02764083817601204,-0.005650337319821119,-0.22601348161697388
1742766208187430000,0.315429931640625,0.031153209507465363,0.010689826682209969,-0.2367033064365387
1742766208189827000,0.3178271484375,0.031153209507465363,0.025655584409832954,-0.24494975805282593
1742766208192224300,0.320224365234375,0.031000498682260513,0.031916771084070206,-0.25212720036506653
1742766208194621400,0.322621337890625,0.030847785994410515,0.04062134400010109,-0.2591519355773926
1742766208197018600,0.3250185546875,0.025961007922887802,0.04184303805232048,-0.2651077210903168
1742766208199415800,0.327415771484375,0.02489202655851841,0.03817795217037201,-0.2651077210903168
1742766208201813200,0.329813232421875,0.021226942539215088,0.0331384651362896,-0.26281702518463135
1742766208204210400,0.33221044921875,0.017714571207761765,0.020616095513105392,-0.2605263590812683
1742766208206607600,0.334607666015625,0.011606098152697086,0.008093725889921188,-0.2582356929779053
1742766208209004800,0.3370048828125,0.004428642801940441,-0.012064233422279358,-0.2510582208633423
1742766208211402000,0.339402099609375,-0.0038177953101694584,-0.032069481909275055,-0.2476985603570938
1742766208213799200,0.341799072265625,-0.010995250195264816,-0.055892523378133774,-0.24189551174640656
1742766208216196400,0.3441962890625,-0.019394399598240852,-0.0784938707947731,-0.23364907503128052
1742766208218593800,0.34659375,-0.027793550863862038,-0.10094250738620758,-0.22540263831615448
1742766208220991000,0.348990966796875,-0.04092676565051079,-0.12491826713085175,-0.21715620160102844
1742766208223388200,0.35138818359375,-0.05772506445646286,-0.1513374149799347,-0.2101314514875412
1742766208225785300,0.353785400390625,-0.07589777559041977,-0.17653486132621765,-0.20081603527069092
1742766208228182500,0.3561826171875,-0.09513945877552032,-0.2041756957769394,-0.1913478970527649
1742766208230579700,0.358579833984375,-0.11209046840667725,-0.22692975401878357,-0.1832541823387146
1742766208232977000,0.360976806640625,-0.12659808993339539,-0.24449162185192108,-0.17500774562358856
1742766208235374000,0.3633740234375,-0.13973131775856018,-0.26220619678497314,-0.16783028841018677
1742766208237771300,0.365771240234375,-0.1507265567779541,-0.27350685000419617,-0.15958385169506073
1742766208240168400,0.36816845703125,-0.1566823273897171,-0.27625566720962524,-0.14889401197433472
1742766208242565600,0.370565673828125,-0.16034740209579468,-0.2725905776023865,-0.1369825005531311
1742766208244963000,0.372963134765625,-0.16279079020023346,-0.261442631483078,-0.12736165523529053
1742766208247360300,0.3753603515625,-0.15927842259407043,-0.24525517225265503,-0.1188097894191742
1742766208249757400,0.37775732421875,-0.15332266688346863,-0.22158484160900116,-0.10918894410133362
1742766208252154600,0.380154541015625,-0.14370182156562805,-0.19409671425819397,-0.10430216789245605
1742766208254551800,0.3825517578125,-0.13301199674606323,-0.16156910359859467,-0.10048437118530273
1742766208256949000,0.384948974609375,-0.11865708231925964,-0.12659808993339539,-0.09910997003316879
1742766208259346200,0.38734619140625,-0.1041494607925415,-0.09147437661886215,-0.09407047927379608
1742766208261743400,0.389743408203125,-0.08735115826129913,-0.05024218559265137,-0.09376505762338638
1742766208264140800,0.392140869140625,-0.07421794533729553,-0.012675080448389053,-0.09483403712511063
1742766208266538000,0.3945380859375,-0.05986303091049194,0.02367033064365387,-0.09697200357913971
1742766208268935200,0.39693505859375,-0.050394900143146515,0.05497625470161438,-0.10033166408538818
1742766208271332400,0.399332275390625,-0.04321744292974472,0.07864658534526825,-0.10613471269607544
1742766208273729500,0.4017294921875,-0.038483377546072006,0.0975828468799591,-0.11560284346342087
1742766208276126700,0.404126708984375,-0.036192700266838074,0.11010521650314331,-0.1250709742307663
1742766208278524000,0.40652392578125,-0.04107947647571564,0.11636640131473541,-0.13576079905033112
1742766208280921000,0.408921142578125,-0.04489727318286896,0.11514470726251602,-0.14767232537269592
1742766208283318500,0.411318603515625,-0.05467082932591438,0.11010521650314331,-0.1620272397994995
1742766208285715700,0.4137158203125,-0.06551336497068405,0.10384403169155121,-0.1763821393251419
1742766208288113000,0.41611279296875,-0.07895200699567795,0.0925433561205864,-0.1907370537519455
1742766208290510000,0.418510009765625,-0.09483403712511063,0.08002099394798279,-0.20509196817874908
1742766208292907300,0.4209072265625,-0.10934165865182877,0.06383354216814041,-0.22311195731163025
1742766208295304400,0.423304443359375,-0.12522368133068085,0.04749337583780289,-0.23868857324123383
1742766208297701600,0.42570166015625,-0.14339639246463776,0.03237490355968475,-0.256708562374115
1742766208300098800,0.428098876953125,-0.16034740209579468,0.014965757727622986,-0.2722851634025574
1742766208302496000,0.43049609375,-0.17989452183246613,-0.00259610079228878,-0.2880144715309143
1742766208304893400,0.4328935546875,-0.19928891956806183,-0.022754060104489326,-0.3035911023616791
1742766208307290600,0.43529052734375,-0.2176143378019333,-0.03649812191724777,-0.32161107659339905
1742766208309687800,0.437687744140625,-0.2357870489358902,-0.049020491540431976,-0.33718767762184143
1742766208312085000,0.4400849609375,-0.2492256760597229,-0.0590994730591774,-0.3503209054470062
1742766208314482200,0.442482177734375,-0.26373329758644104,-0.06917845457792282,-0.36223241686820984
1742766208316879400,0.44487939453125,-0.27839362621307373,-0.07543963938951492,-0.3730749487876892
1742766208319276500,0.447276611328125,-0.28938889503479004,-0.08185353130102158,-0.3802524209022522
1742766208321673700,0.449673828125,-0.30038413405418396,-0.09055810421705246,-0.3874298632144928
1742766208324071000,0.45207080078125,-0.31000497937202454,-0.09697200357913971,-0.388651579618454
1742766208326468400,0.45446826171875,-0.31855684518814087,-0.10323318839073181,-0.388651579618454
1742766208328865500,0.456865478515625,-0.3220692276954651,-0.10827267915010452,-0.38391751050949097
1742766208331262700,0.4592626953125,-0.3245126008987427,-0.11086877435445786,-0.38040512800216675
1742766208333660000,0.461659912109375,-0.32939937710762024,-0.11590826511383057,-0.37567105889320374
1742766208336057000,0.46405712890625,-0.3292466700077057,-0.11972606182098389,-0.36849361658096313
1742766208338454300,0.466454345703125,-0.3292466700077057,-0.1185043677687645,-0.3637595474720001
1742766208340851500,0.4688515625,-0.3292466700077057,-0.1172826737165451,-0.35536038875579834
1742766208343248600,0.47124853515625,-0.3280249834060669,-0.11361759155988693,-0.34940463304519653
1742766208345646000,0.47364599609375,-0.3268032968044281,-0.11239589750766754,-0.3446705639362335
1742766208348043300,0.476043212890625,-0.3280249834060669,-0.11361759155988693,-0.3374931216239929
1742766208350440400,0.4784404296875,-0.3268032968044281,-0.11621369421482086,-0.3327590525150299
1742766208352837600,0.480837646484375,-0.3280249834060669,-0.1188097894191742,-0.3255815804004669
1742766208355234800,0.48323486328125,-0.32665055990219116,-0.1250709742307663,-0.3184041380882263
1742766208357632000,0.485632080078125,-0.32542887330055237,-0.13117945194244385,-0.3148917555809021
1742766208360029200,0.488029296875,-0.324054479598999,-0.13621893525123596,-0.3042019307613373
1742766208362426400,0.49042626953125,-0.324054479598999,-0.1438545286655426,-0.2970244884490967
1742766208364823600,0.492823486328125,-0.3239017724990845,-0.15500248968601227,-0.28999972343444824
1742766208367220700,0.495220703125,-0.32374903559684753,-0.16752485930919647,-0.2817533016204834
1742766208369618200,0.4976181640625,-0.32374903559684753,-0.18004722893238068,-0.2722851634025574
1742766208372015400,0.500015380859375,-0.3223746418952942,-0.1951656937599182,-0.26403874158859253
1742766208374412500,0.50241259765625,-0.32222193479537964,-0.21257483959197998,-0.25808295607566833
1742766208376809700,0.504809814453125,-0.3196258246898651,-0.22631891071796417,-0.2510582208633423
1742766208379207000,0.50720703125,-0.31825143098831177,-0.24510246515274048,-0.24281178414821625
1742766208381604000,0.50960400390625,-0.31687700748443604,-0.26006820797920227,-0.2345653474330902
1742766208384001300,0.512001220703125,-0.3142809271812439,-0.2786990702152252,-0.22402822971343994
1742766208386398500,0.5143984375,-0.3104631304740906,-0.2912214398384094,-0.21211670339107513
1742766208388796000,0.5167958984375,-0.31031039357185364,-0.3049654960632324,-0.20142687857151031
1742766208391193000,0.519193115234375,-0.30664533376693726,-0.31626617908477783,-0.18966807425022125
1742766208393590300,0.52159033203125,-0.30282753705978394,-0.32252734899520874,-0.17531315982341766
1742766208395987500,0.523987548828125,-0.29778802394866943,-0.3313846290111542,-0.15988926589488983
1742766208398384600,0.526384521484375,-0.29290124773979187,-0.3374931216239929,-0.14797775447368622
1742766208400781800,0.52878173828125,-0.28786176443099976,-0.34008920192718506,-0.13362284004688263
1742766208403179000,0.531178955078125,-0.2805316150188446,-0.34131091833114624,-0.11575555801391602
1742766208405576200,0.533576171875,-0.27320143580436707,-0.33886751532554626,-0.10628741979598999
1742766208407973600,0.5359736328125,-0.2683146595954895,-0.34008920192718506,-0.09437590092420578
1742766208410370800,0.538370849609375,-0.26220619678497314,-0.33764582872390747,-0.08353336155414581
1742766208412768000,0.54076806640625,-0.2548760175704956,-0.3277195692062378,-0.072843536734581
1742766208415165200,0.543165283203125,-0.24754585325717926,-0.3164188861846924,-0.059557609260082245
1742766208417562400,0.545562255859375,-0.24159009754657745,-0.3002314269542694,-0.04871506989002228
1742766208419959600,0.54795947265625,-0.23563432693481445,-0.27656111121177673,-0.0390942245721817
1742766208422356700,0.550356689453125,-0.22845686972141266,-0.24907296895980835,-0.025808297097682953
1742766208424754000,0.55275390625,-0.22005772590637207,-0.22036315500736237,-0.01847812905907631
1742766208427151000,0.555151123046875,-0.21058958768844604,-0.1892099380493164,-0.00992626789957285
1742766208429548500,0.557548583984375,-0.1985253542661667,-0.15805672109127045,-0.00259610079228878
1742766208431945700,0.55994580078125,-0.1841704547405243,-0.12171131372451782,0.0024433890357613564
1742766208434343000,0.562343017578125,-0.1698155403137207,-0.08170082420110703,0.006261184345930815
1742766208436740000,0.564739990234375,-0.15546062588691711,-0.04046862944960594,0.010078979656100273
1742766208439137300,0.56713720703125,-0.1435490995645523,-0.0004581354442052543,0.011453386396169662
1742766208441534500,0.569534423828125,-0.1304158866405487,0.03955236077308655,0.012980503961443901
1742766208443931600,0.571931640625,-0.11835165321826935,0.07467607408761978,0.010842538438737392
1742766208446328800,0.574328857421875,-0.10521844029426575,0.10842538625001907,0.006261184345930815
1742766208448726000,0.57672607421875,-0.09575030952692032,0.1360662281513214,0.0015271181473508477
1742766208451123500,0.57912353515625,-0.08124268800020218,0.15744587779045105,-0.005497625097632408
1742766208453520600,0.581520751953125,-0.072843536734581,0.17500774562358856,-0.016034740954637527
1742766208455917800,0.583917724609375,-0.0656660795211792,0.18768282234668732,-0.027946261689066887
1742766208458315000,0.58631494140625,-0.0584886260330677,0.19654010236263275,-0.04214845970273018
1742766208460712200,0.588712158203125,-0.05238015204668045,0.19913621246814728,-0.05772506445646286
1742766208463109400,0.591109375,-0.043981000781059265,0.19684553146362305,-0.07559234648942947
1742766208465506600,0.593506591796875,-0.03787253051996231,0.19455485045909882,-0.09712471067905426
1742766208467904000,0.595904052734375,-0.03680354729294777,0.1910424828529358,-0.11743538826704025
1742766208470301200,0.59830126953125,-0.03436015918850899,0.18371231853961945,-0.13530266284942627
1742766208472698400,0.600698486328125,-0.0331384651362896,0.1763821393251419,-0.15210096538066864
1742766208475095600,0.603095458984375,-0.03558185324072838,0.168899267911911,-0.16645587980747223
1742766208477492700,0.60549267578125,-0.03680354729294777,0.16156910359859467,-0.17836740612983704
1742766208479890000,0.607889892578125,-0.04046862944960594,0.15652960538864136,-0.1892099380493164
1742766208482287000,0.610287109375,-0.043981000781059265,0.14904673397541046,-0.19409671425819397
1742766208484684300,0.612684326171875,-0.045202698558568954,0.14660334587097168,-0.197609081864357
1742766208487081500,0.61508154296875,-0.045202698558568954,0.1453816443681717,-0.1963873952627182
1742766208489478700,0.617478759765625,-0.046424392610788345,0.14278554916381836,-0.1916533261537552
1742766208491876000,0.6198759765625,-0.047646086663007736,0.14400723576545715,-0.18691925704479218
1742766208494273300,0.622273193359375,-0.047646086663007736,0.14889401197433472,-0.1785201132297516
1742766208496670500,0.62467041015625,-0.043981000781059265,0.1525591015815735,-0.16538690030574799
1742766208499067600,0.627067626953125,-0.04153761267662048,0.1588202863931656,-0.15347537398338318
1742766208501464800,0.62946484375,-0.03787253051996231,0.16630317270755768,-0.14018943905830383
1742766208503862000,0.631862060546875,-0.03176405653357506,0.17118994891643524,-0.12583453953266144
1742766208506259200,0.63425927734375,-0.024433890357613564,0.17745113372802734,-0.11636640131473541
1742766208508656400,0.636656494140625,-0.01710372418165207,0.18371231853961945,-0.10308047384023666
1742766208511053600,0.639053466796875,-0.008551862090826035,0.18997350335121155,-0.09239064902067184
1742766208513451000,0.641450927734375,0,0.19241689145565033,-0.07803573459386826
1742766208515848200,0.64384814453125,0.007330167107284069,0.19623468816280365,-0.06612421572208405
1742766208518245400,0.646245361328125,0.01588202826678753,0.2011214643716812,-0.05650337040424347
1742766208520642600,0.648642578125,0.021990500390529633,0.20249587297439575,-0.04703523963689804
1742766208523039700,0.651039794921875,0.030542362481355667,0.20127417147159576,-0.037414394319057465
1742766208525437000,0.65343701171875,0.03787253051996231,0.20127417147159576,-0.03390202298760414
1742766208527834000,0.655834228515625,0.04031591862440109,0.197609081864357,-0.030389651656150818
1742766208530231300,0.658231201171875,0.045355409383773804,0.1901262104511261,-0.027946261689066887
1742766208532628700,0.660628662109375,0.047798797488212585,0.18401773273944855,-0.030389651656150818
1742766208535026000,0.66302587890625,0.049020491540431976,0.17271706461906433,-0.030542362481355667
1742766208537423000,0.665423095703125,0.050394900143146515,0.16034740209579468,-0.03298575058579445
1742766208539820300,0.6678203125,0.047951508313417435,0.14782503247261047,-0.03420744836330414
1742766208542217500,0.670217529296875,0.04688252881169319,0.1316375881433487,-0.04031591862440109
1742766208544614700,0.67261474609375,0.04459185153245926,0.11422843486070633,-0.045202698558568954
1742766208547011800,0.67501171875,0.04214845970273018,0.09804098308086395,-0.05008947476744652
1742766208549409000,0.677408935546875,0.038636088371276855,0.07925742864608765,-0.05375456064939499
1742766208551806200,0.67980615234375,0.03512371703982353,0.06306997686624527,-0.05864133685827255
1742766208554203600,0.68220361328125,0.0328330397605896,0.04443913698196411,-0.062306419014930725
1742766208556600800,0.684600830078125,0.03161134570837021,0.028251685202121735,-0.06719319522380829
1742766208558998000,0.686998046875,0.026877280324697495,0.013285927474498749,-0.06963659077882767
1742766208561395200,0.689395263671875,0.023364907130599022,0.0007635590736754239,-0.07085828483104706
1742766208563792400,0.69179248046875,0.02092151902616024,-0.01175880990922451,-0.06978929787874222
1742766208566189600,0.694189453125,0.0198525357991457,-0.021685076877474785,-0.07101099193096161
1742766208568586800,0.696586669921875,0.016187451779842377,-0.030542362481355667,-0.06749862432479858
1742766208570984000,0.69898388671875,0.01511846948415041,-0.03680354729294777,-0.06398624926805496
1742766208573381400,0.70138134765625,0.011453386396169662,-0.04062134400010109,-0.05803048983216286
1742766208575778600,0.703778564453125,0.009009997360408306,-0.03817795217037201,-0.054365407675504684
1742766208578175700,0.70617578125,0.010231691412627697,-0.03573456406593323,-0.04611896723508835
1742766208580573000,0.708572998046875,0.012675080448389053,-0.0331384651362896,-0.04367557913064957
1742766208582970000,0.71097021484375,0.017561858519911766,-0.024433890357613564,-0.040010496973991394
1742766208585367300,0.7133671875,0.02351761981844902,-0.01435491070151329,-0.037567105144262314
1742766208587764500,0.715764404296875,0.028404397889971733,-0.0032069480512291193,-0.037567105144262314
1742766208590161700,0.71816162109375,0.03436015918850899,0.010537114925682545,-0.03512371703982353
1742766208592559000,0.72055908203125,0.04031591862440109,0.023212196305394173,-0.03497100621461868
1742766208594956300,0.722956298828125,0.04749337583780289,0.03817795217037201,-0.0325276181101799
1742766208597353500,0.725353515625,0.05238015204668045,0.04947862774133682,-0.03130592033267021
1742766208599750700,0.727750732421875,0.057114217430353165,0.06062658876180649,-0.02886253222823143
1742766208602147800,0.73014794921875,0.06444438546895981,0.07070557028055191,-0.02870982140302658
1742766208604545000,0.732544921875,0.06795676052570343,0.08078455179929733,-0.02870982140302658
1742766208606942200,0.734942138671875,0.072843536734581,0.08948912471532822,-0.029778804630041122
1742766208609339400,0.73733935546875,0.07757759839296341,0.09590301662683487,-0.03451287001371384
1742766208611736600,0.739736572265625,0.08246438205242157,0.10460758954286575,-0.03451287001371384
1742766208614133800,0.7421337890625,0.08353336155414581,0.11468657106161118,-0.03924693539738655
1742766208616531200,0.74453125,0.0847550556063652,0.11590826511383057,-0.042759306728839874
1742766208618928400,0.746928466796875,0.08231166750192642,0.11086877435445786,-0.046424392610788345
1742766208621325600,0.74932568359375,0.08002099394798279,0.10216420143842697,-0.05008947476744652
1742766208623722800,0.75172265625,0.08002099394798279,0.0910162404179573,-0.0525328628718853
1742766208626120000,0.754119873046875,0.08017370104789734,0.08108997344970703,-0.05497625470161438
1742766208628517000,0.75651708984375,0.08139539510011673,0.06734590977430344,-0.05497625470161438
1742766208630914300,0.758914306640625,0.08399149775505066,0.05619794875383377,-0.05864133685827255
1742766208633311500,0.7613115234375,0.08521319180727005,0.0462716780602932,-0.062306419014930725
1742766208635709000,0.763708984375,0.08643488585948944,0.037567105144262314,-0.0659715011715889
1742766208638106000,0.766106201171875,0.09009996801614761,0.03145863488316536,-0.07070557028055191
1742766208640503300,0.76850341796875,0.09025268256664276,0.025197450071573257,-0.0791047215461731
1742766208642900500,0.770900390625,0.09025268256664276,0.016492875292897224,-0.08521319180727005
1742766208645297700,0.773297607421875,0.08780929446220398,0.007788302376866341,-0.08994726091623306
1742766208647694800,0.77569482421875,0.0853659063577652,0.0029015245381742716,-0.09834641218185425
1742766208650092000,0.778092041015625,0.08429691940546036,-0.004581354558467865,-0.09956810623407364
1742766208652489200,0.7804892578125,0.08063183724880219,-0.009620844386518002,-0.10323318839073181
1742766208654886700,0.78288671875,0.0781884491443634,-0.009620844386518002,-0.10796725004911423
1742766208657283800,0.785283935546875,0.07681404054164886,-0.004581354558467865,-0.1104106456041336
1742766208659681000,0.787680908203125,0.07437065243721008,0.0029015245381742716,-0.11270131915807724
1742766208662078200,0.790078125,0.07314895838499069,0.011606098152697086,-0.11621369421482086
1742766208664475400,0.792475341796875,0.07299624383449554,0.019088976085186005,-0.12094775587320328
1742766208666872600,0.79487255859375,0.07543963938951492,0.027793550863862038,-0.1256818175315857
1742766208669269800,0.797269775390625,0.07895200699567795,0.0390942245721817,-0.13270656764507294
1742766208671667000,0.7996669921875,0.0787992998957634,0.051616594195365906,-0.13744063675403595
1742766208674064100,0.802064208984375,0.08246438205242157,0.06169557198882103,-0.14217470586299896
1742766208676461300,0.80446142578125,0.08353336155414581,0.07055285573005676,-0.150421142578125
1742766208678858800,0.806858642578125,0.08353336155414581,0.07543963938951492,-0.1575985997915268
1742766208681256000,0.809255859375,0.07864658534526825,0.07543963938951492,-0.1588202863931656
1742766208683653000,0.811653076171875,0.07620319724082947,0.06795676052570343,-0.1623326539993286
1742766208686050300,0.81405029296875,0.0713164210319519,0.06291726976633072,-0.16126367449760437
1742766208688447500,0.816447509765625,0.06658235192298889,0.052990999072790146,-0.16370706260204315
1742766208690844700,0.8188447265625,0.0653606578707695,0.04169032722711563,-0.16141638159751892
1742766208693241900,0.821241943359375,0.06184828653931618,0.03161134570837021,-0.1566823273897171
1742766208695639000,0.82363916015625,0.059557609260082245,0.017867282032966614,-0.1507265567779541
1742766208698036500,0.826036376953125,0.058335911482572556,0.0065666078589856625,-0.14003673195838928
1742766208700433700,0.82843359375,0.060932014137506485,-0.007177455350756645,-0.129499614238739
1742766208702830800,0.830830810546875,0.061084724962711334,-0.01969982497394085,-0.1188097894191742
1742766208705228000,0.83322802734375,0.06245913356542587,-0.034665580838918686,-0.10811996459960938
1742766208707625200,0.835625244140625,0.06139015033841133,-0.04352286830544472,-0.09620844572782516
1742766208710022400,0.8380224609375,0.06016845628619194,-0.05100574716925621,-0.08551861345767975
1742766208712419600,0.840419677734375,0.06154286116361618,-0.05741964280605316,-0.0725381150841713
1742766208714816800,0.842816650390625,0.06032116711139679,-0.06001574173569679,-0.06169557198882103
1742766208717214200,0.845214111328125,0.05803048983216286,-0.06261184066534042,-0.05100574716925621
1742766208719611400,0.847611328125,0.054365407675504684,-0.06139015033841133,-0.042606595903635025
1742766208722008600,0.850008544921875,0.053143709897994995,-0.06261184066534042,-0.03787253051996231
1742766208724405800,0.85240576171875,0.04947862774133682,-0.06154286116361618,-0.03665083646774292
1742766208726803000,0.854802978515625,0.04581354558467865,-0.06032116711139679,-0.03558185324072838
1742766208729200000,0.8572001953125,0.04092676565051079,-0.05650337040424347,-0.04031591862440109
1742766208731597300,0.859597412109375,0.037261683493852615,-0.05650337040424347,-0.0462716780602932
1742766208733994500,0.861994384765625,0.029778804630041122,-0.051616594195365906,-0.054518118500709534
1742766208736391700,0.8643916015625,0.02244863659143448,-0.046577103435993195,-0.06765133142471313
1742766208738788900,0.866788818359375,0.01252236869186163,-0.04169032722711563,-0.07956285774707794
1742766208741186300,0.869186279296875,0.0015271181473508477,-0.03680354729294777,-0.09025268256664276
1742766208743583500,0.87158349609375,-0.008246437646448612,-0.03298575058579445,-0.10689827054738998
1742766208745980700,0.873980712890625,-0.01572931744158268,-0.029320668429136276,-0.1247655525803566
1742766208748377900,0.8763779296875,-0.025502873584628105,-0.026724567636847496,-0.14018943905830383
1742766208750775000,0.878775146484375,-0.0328330397605896,-0.026724567636847496,-0.1569877415895462
1742766208753172200,0.881172119140625,-0.042606595903635025,-0.030542362481355667,-0.1713426560163498
1742766208755569400,0.8835693359375,-0.04993676394224167,-0.03542914241552353,-0.1844758689403534
1742766208757966800,0.885966796875,-0.05726693198084831,-0.04046862944960594,-0.1963873952627182
1742766208760364000,0.888364013671875,-0.06337540596723557,-0.046729814261198044,-0.21425467729568481
1742766208762761200,0.89076123046875,-0.07070557028055191,-0.05543438717722893,-0.22631891071796417
1742766208765158400,0.893158447265625,-0.07925742864608765,-0.06032116711139679,-0.24067382514476776
1742766208767555600,0.8955556640625,-0.08780929446220398,-0.06658235192298889,-0.2513636350631714
1742766208769952800,0.897952880859375,-0.0975828468799591,-0.06795676052570343,-0.26220619678497314
1742766208772350000,0.900349853515625,-0.10613471269607544,-0.06917845457792282,-0.27533939480781555
1742766208774747100,0.9027470703125,-0.11590826511383057,-0.07055285573005676,-0.2848075330257416
1742766208777144300,0.905144287109375,-0.12079504877328873,-0.07299624383449554,-0.2919849753379822
1742766208779541800,0.907541748046875,-0.12690351903438568,-0.07299624383449554,-0.30038413405418396
1742766208781939000,0.90993896484375,-0.1319430023431778,-0.07299624383449554,-0.30633988976478577
1742766208784336100,0.912336181640625,-0.13560809195041656,-0.06673506647348404,-0.31229567527770996
1742766208786733300,0.9147333984375,-0.13927318155765533,-0.06184828653931618,-0.3170297145843506
1742766208789130500,0.917130615234375,-0.14186927676200867,-0.055587101727724075,-0.319320410490036
1742766208791527700,0.919527587890625,-0.14309096336364746,-0.04443913698196411,-0.32161107659339905
1742766208793924900,0.9219248046875,-0.14797775447368622,-0.03695625811815262,-0.32512345910072327
1742766208796322000,0.924322021484375,-0.15179555118083954,-0.029473381116986275,-0.32634514570236206
1742766208798719200,0.92671923828125,-0.1566823273897171,-0.02092151902616024,-0.32512345910072327
1742766208801116700,0.92911669921875,-0.16156910359859467,-0.01588202826678753,-0.3249707520008087
1742766208803513900,0.931513916015625,-0.16401249170303345,-0.013438640162348747,-0.3261924386024475
1742766208805911000,0.9339111328125,-0.16767756640911102,-0.016034740954637527,-0.3249707520008087
1742766208808308200,0.93630810546875,-0.17256435751914978,-0.02733541466295719,-0.32512345910072327
1742766208810705400,0.938705322265625,-0.1772984117269516,-0.04230117425322533,-0.32634514570236206
1742766208813102600,0.9411025390625,-0.18569757044315338,-0.062306419014930725,-0.3312319219112396
1742766208815499800,0.943499755859375,-0.19272230565547943,-0.09590301662683487,-0.33382803201675415
1742766208817897000,0.94589697265625,-0.2011214643716812,-0.13591352105140686,-0.34008920192718506
1742766208820294400,0.94829443359375,-0.20814619958400726,-0.17210622131824493,-0.3498627543449402
1742766208822691600,0.950691650390625,-0.2176143378019333,-0.2157817929983139,-0.3608580231666565
1742766208825088800,0.9530888671875,-0.2307475507259369,-0.26312246918678284,-0.37536564469337463
1742766208827486000,0.95548583984375,-0.2426590770483017,-0.3167243003845215,-0.3924693763256073
1742766208829883100,0.957883056640625,-0.25808295607566833,-0.37536564469337463,-0.40468630194664
1742766208832280300,0.9602802734375,-0.27472856640815735,-0.4390464723110199,-0.41949936747550964
1742766208834677500,0.962677490234375,-0.2939702570438385,-0.5002838969230652,-0.43171629309654236
1742766208837074700,0.96507470703125,-0.3106158375740051,-0.5551074743270874,-0.4428642690181732
1742766208839472000,0.96747216796875,-0.3286358118057251,-0.6088619828224182,-0.4515688419342041
1742766208841869300,0.969869384765625,-0.3503209054470062,-0.6539120078086853,-0.462564080953598
1742766208844266500,0.9722666015625,-0.363454133272171,-0.6914790868759155,-0.47111594676971436
1742766208846663700,0.97466357421875,-0.3765873312950134,-0.7327113151550293,-0.4808894991874695
1742766208849060900,0.977060791015625,-0.390942245721817,-0.7776085734367371,-0.4918847680091858
1742766208851458000,0.9794580078125,-0.4077405333518982,-0.818840742111206,-0.5028799772262573
1742766208853855200,0.981855224609375,-0.4294256269931793,-0.8576295375823975,-0.5102101564407349
1742766208856252400,0.98425244140625,-0.4524851143360138,-0.8878664970397949,-0.5140279531478882
1742766208858649600,0.986649658203125,-0.47172680497169495,-0.9116895198822021,-0.5154023766517639
1742766208861046800,0.989046875,-0.48989951610565186,-0.9306257963180542,-0.5141806602478027
1742766208863444200,0.9914443359375,-0.5044071078300476,-0.9457442760467529,-0.5108210444450378
1742766208865841400,0.99384130859375,-0.517693042755127,-0.9596410393714905,-0.5083776116371155
1742766208868238600,0.996238525390625,-0.5286883115768433,-0.9634588360786438,-0.5060869455337524
1742766208870635800,0.9986357421875,-0.5360184907913208,-0.9698727130889893,-0.5025745630264282
1742766208873033000,1.001032958984375,-0.5383091568946838,-0.9761339426040649,-0.5001311898231506
1742766208875430100,1.00343017578125,-0.5419742465019226,-0.9910996556282043,-0.4990622103214264
1742766208877827300,1.005827392578125,-0.5441122055053711,-1.0159916877746582,-0.49677154421806335
1742766208880224500,1.008224609375,-0.5464028716087341,-1.0497410297393799,-0.4946335554122925
1742766208882622000,1.0106220703125,-0.5497625470161438,-1.0895987749099731,-0.4937172830104828
1742766208885019100,1.01301904296875,-0.5494571328163147,-1.130831003189087,-0.4963133931159973
1742766208887416300,1.015416259765625,-0.5467082858085632,-1.174353837966919,-0.5013529062271118
1742766208889813500,1.0178134765625,-0.5488462448120117,-1.2154333591461182,-0.5100574493408203
1742766208892210700,1.020210693359375,-0.5548020005226135,-1.2441431283950806,-0.5173876285552979
1742766208894608000,1.02260791015625,-0.5632011890411377,-1.2591089010238647,-0.5245651006698608
1742766208897005000,1.025005126953125,-0.5766398310661316,-1.2604832649230957,-0.5341859459877014
1742766208899402200,1.02740234375,-0.5938962697982788,-1.2543748617172241,-0.5436540842056274
1742766208901799700,1.029799560546875,-0.6158867478370667,-1.2508624792099,-0.5483881235122681
1742766208904196900,1.03219677734375,-0.6378772258758545,-1.2473500967025757,-0.5543438792228699
1742766208906594000,1.034593994140625,-0.6621584296226501,-1.2549856901168823,-0.5602996349334717
1742766208908991200,1.0369912109375,-0.6888830065727234,-1.2676607370376587,-0.5662553906440735
1742766208911388400,1.039388427734375,-0.7243121266365051,-1.2780451774597168,-0.5711421966552734
1742766208913785600,1.04178564453125,-0.7583668828010559,-1.2896512746810913,-0.5760289430618286
1742766208916182800,1.044182861328125,-0.7936432957649231,-1.296217918395996,-0.580763041973114
1742766208918580000,1.046580078125,-0.8315158486366272,-1.3041589260101318,-0.5854970812797546
1742766208920977200,1.04897705078125,-0.869235634803772,-1.3145432472229004,-0.5926745533943176
1742766208923374600,1.05137451171875,-0.9081771373748779,-1.3360756635665894,-0.6012263894081116
1742766208925771800,1.053771728515625,-0.9396358132362366,-1.3699777126312256,-0.6073349118232727
1742766208928169000,1.0561689453125,-0.9747595191001892,-1.4078502655029297,-0.611152708530426
1742766208930566100,1.058566162109375,-1.011104941368103,-1.441904902458191,-0.6090146899223328
1742766208932963300,1.06096337890625,-1.0476030111312866,-1.4597722291946411,-0.610236406326294
1742766208935360500,1.063360595703125,-1.0816577672958374,-1.4600776433944702,-0.6077930331230164
1742766208937757700,1.0657578125,-1.105022668838501,-1.4367127418518066,-0.6064186096191406
1742766208940155000,1.06815478515625,-1.123653531074524,-1.395785927772522,-0.6085565686225891
1742766208942552300,1.07055224609375,-1.1277767419815063,-1.3347012996673584,-0.6129852533340454
1742766208944949500,1.072949462890625,-1.1221264600753784,-1.258650779724121,-0.6232169270515442
1742766208947346700,1.0753466796875,-1.108229637145996,-1.1711468696594238,-0.6381826996803284
1742766208949743900,1.077743896484375,-1.0894460678100586,-1.0773818492889404,-0.6591041684150696
1742766208952141000,1.08014111328125,-1.0694408416748047,-0.9860602021217346,-0.6800256967544556
1742766208954538200,1.082538330078125,-1.0494356155395508,-0.8896990418434143,-0.7021689414978027
1742766208956935400,1.084935302734375,-1.0295830965042114,-0.7896727919578552,-0.7229377031326294
1742766208959332600,1.08733251953125,-1.0120211839675903,-0.682163655757904,-0.7401941418647766
1742766208961730000,1.08972998046875,-0.9970554113388062,-0.5709894895553589,-0.7539382576942444
1742766208964127200,1.092127197265625,-0.9831586480140686,-0.4611896872520447,-0.7591304183006287
1742766208966524400,1.0945244140625,-0.9717052578926086,-0.35627666115760803,-0.7597413063049316
1742766208968921600,1.096921630859375,-0.9578084945678711,-0.26037365198135376,-0.747218906879425
1742766208971318800,1.09931884765625,-0.946049690246582,-0.17928366363048553,-0.731184184551239
1742766208973716000,1.101716064453125,-0.934290885925293,-0.10949437320232391,-0.709346354007721
1742766208976113200,1.104113037109375,-0.9139801859855652,-0.04963133856654167,-0.6838434934616089
1742766208978510300,1.10651025390625,-0.8933641314506531,-0.0021379655227065086,-0.6584933400154114
1742766208980907500,1.108907470703125,-0.8667922616004944,0.03527642786502838,-0.6273401379585266
1742766208983304700,1.1113046875,-0.8388460278511047,0.06902574002742767,-0.5960342288017273
1742766208985702100,1.1137021484375,-0.804791271686554,0.09422318637371063,-0.5673243999481201
1742766208988099300,1.116099365234375,-0.7695148587226868,0.11804623156785965,-0.540905237197876
1742766208990496500,1.11849658203125,-0.7330167293548584,0.13835690915584564,-0.5181511640548706
1742766208992893700,1.120893798828125,-0.6988092660903931,0.15591876208782196,-0.49417543411254883
1742766208995291000,1.123290771484375,-0.6671979427337646,0.17118994891643524,-0.4750864505767822
1742766208997688000,1.12568798828125,-0.638029932975769,0.1901262104511261,-0.4558447599411011
1742766209000085200,1.128085205078125,-0.6160394549369812,0.20631365478038788,-0.4355340898036957
1742766209002482400,1.130482421875,-0.5978667736053467,0.2276933193206787,-0.4162923991680145
1742766209004880000,1.1328798828125,-0.5833591222763062,0.2513636350631714,-0.39827242493629456
1742766209007277000,1.135277099609375,-0.5700731873512268,0.27381229400634766,-0.3849864900112152
1742766209009674200,1.13767431640625,-0.5578562617301941,0.29259583353996277,-0.37292224168777466
1742766209012071400,1.140071533203125,-0.5482354164123535,0.30633988976478577,-0.3633013963699341
1742766209014468600,1.142468505859375,-0.5372401475906372,0.3139754831790924,-0.3549022674560547
1742766209016865800,1.14486572265625,-0.5262449383735657,0.31657159328460693,-0.3477247953414917
1742766209019263000,1.147262939453125,-0.517693042755127,0.3139754831790924,-0.3358132839202881
1742766209021660200,1.14966015625,-0.509141206741333,0.3139754831790924,-0.3179459869861603
1742766209024057600,1.1520576171875,-0.5004366040229797,0.31031039357185364,-0.29778802394866943
1742766209026454800,1.154454833984375,-0.49417543411254883,0.3014531135559082,-0.27747735381126404
1742766209028852000,1.15685205078125,-0.48669254779815674,0.2852656841278076,-0.2585411071777344
1742766209031249200,1.159249267578125,-0.47554460167884827,0.2652604281902313,-0.23838314414024353
1742766209033646300,1.161646240234375,-0.4619532525539398,0.24281178414821625,-0.21822518110275269
1742766209036043500,1.16404345703125,-0.44576579332351685,0.2217375487089157,-0.20051060616970062
1742766209038440700,1.166440673828125,-0.42850935459136963,0.20310671627521515,-0.18035265803337097
1742766209040838000,1.168837890625,-0.4112529158592224,0.1832541823387146,-0.16248537600040436
1742766209043235000,1.171235107421875,-0.39766156673431396,0.16462333500385284,-0.1423274129629135
1742766209045632300,1.17363232421875,-0.3865135908126831,0.14843589067459106,-0.12339114397764206
1742766209048029700,1.17602978515625,-0.3790307343006134,0.12843063473701477,-0.10689827054738998
1742766209050427000,1.178427001953125,-0.3787252902984619,0.10338589549064636,-0.09147437661886215
1742766209052824000,1.180823974609375,-0.3846810758113861,0.07467607408761978,-0.08215895295143127
1742766209055221200,1.18322119140625,-0.39292749762535095,0.04581354558467865,-0.0716218426823616
1742766209057618400,1.185618408203125,-0.40606072545051575,0.01817270554602146,-0.060932014137506485
1742766209060015600,1.188015625,-0.4217900335788727,-0.011911521665751934,-0.051616594195365906
1742766209062412800,1.190412841796875,-0.43736663460731506,-0.04214845970273018,-0.04337015375494957
1742766209064810200,1.192810302734375,-0.4480564594268799,-0.07345438003540039,-0.03771981969475746
1742766209067207400,1.19520751953125,-0.4599680006504059,-0.10842538625001907,-0.027182703837752342
1742766209069604600,1.1976044921875,-0.46699273586273193,-0.14721418917179108,-0.020157959312200546
1742766209072001800,1.200001708984375,-0.4715740978717804,-0.18966807425022125,-0.009773556143045425
1742766209074399000,1.20239892578125,-0.4747810363769531,-0.23593975603580475,0.004275931045413017
1742766209076796200,1.204796142578125,-0.4756973087787628,-0.27717193961143494,0.023059483617544174
1742766209079193300,1.207193359375,-0.4790569543838501,-0.31855684518814087,0.04077405482530594
1742766209081590500,1.209590576171875,-0.47615543007850647,-0.3596363365650177,0.05482354015111923
1742766209083988000,1.211988037109375,-0.46729815006256104,-0.39949411153793335,0.06765133142471313
1742766209086385200,1.21438525390625,-0.4572191834449768,-0.441795289516449,0.0781884491443634
1742766209088782300,1.2167822265625,-0.4497362971305847,-0.4743228852748871,0.0910162404179573
1742766209091179500,1.219179443359375,-0.4443913698196411,-0.5154023766517639,0.09910997003316879
1742766209093576700,1.22157666015625,-0.44271156191825867,-0.5839699506759644,0.1119377613067627
1742766209095974000,1.223973876953125,-0.44332239031791687,-0.6513158679008484,0.13179029524326324
1742766209098371000,1.22637109375,-0.44668206572532654,-0.6864396333694458,0.14935214817523956
1742766209100768300,1.228768310546875,-0.4503471553325653,-0.6803311109542847,0.17088451981544495
1742766209103165400,1.23116552734375,-0.45416492223739624,-0.6493306159973145,0.19027891755104065
1742766209105562600,1.233562744140625,-0.45447036623954773,-0.5996993184089661,0.21914145350456238
1742766209107960000,1.2359599609375,-0.4437805414199829,-0.5424323678016663,0.24693500995635986
1742766209110357200,1.238357177734375,-0.42453885078430176,-0.4888305068016052,0.27717193961143494
1742766209112754400,1.24075439453125,-0.39796698093414307,-0.4352286756038666,0.30969956517219543
1742766209115151600,1.243151611328125,-0.3701734244823456,-0.3865135908126831,0.34451785683631897
1742766209117548800,1.245548828125,-0.33978378772735596,-0.3489464819431305,0.3746020793914795
1742766209119946000,1.247946044921875,-0.30817243456840515,-0.32130566239356995,0.39735615253448486
1742766209122343200,1.25034326171875,-0.2802261710166931,-0.3049654960632324,0.41888850927352905
1742766209124740400,1.252740234375,-0.2545706033706665,-0.296108216047287,0.43446511030197144
1742766209127137800,1.2551376953125,-0.2301367074251175,-0.3058817684650421,0.4486673176288605
1742766209129535000,1.257534912109375,-0.2079934924840927,-0.3268032968044281,0.46164780855178833
1742766209131932200,1.25993212890625,-0.18340688943862915,-0.3564293682575226,0.4674508571624756
1742766209134329300,1.262329345703125,-0.16111096739768982,-0.39857783913612366,0.47203221917152405
1742766209136726500,1.2647265625,-0.14003673195838928,-0.44698747992515564,0.47646087408065796
1742766209139123700,1.267123779296875,-0.12018419802188873,-0.4953971207141876,0.47615543007850647
1742766209141521000,1.26952099609375,-0.10140064358711243,-0.5486935377120972,0.4756973087787628
1742766209143918000,1.27191796875,-0.08872556686401367,-0.6233696341514587,0.47050508856773376
1742766209146315500,1.2743154296875,-0.07589777559041977,-0.7104153633117676,0.46393850445747375
1742766209148712700,1.276712646484375,-0.06322269141674042,-0.786160409450531,0.4587462842464447
1742766209151110000,1.27910986328125,-0.05070032179355621,-0.8347227573394775,0.4549284875392914
1742766209153507000,1.281507080078125,-0.033443886786699295,-0.8580876588821411,0.448820024728775
1742766209155904300,1.283904296875,-0.01511846948415041,-0.8727480173110962,0.4402681589126587
1742766209158301400,1.286301513671875,0.0032069480512291193,-0.8874083757400513,0.4234698712825775
1742766209160698600,1.28869873046875,0.017867282032966614,-0.9093988537788391,0.3898732662200928
1742766209163095800,1.291095703125,0.03130592033267021,-0.9177979826927185,0.35291701555252075
1742766209165493000,1.293492919921875,0.04199574887752533,-0.9074136018753052,0.31000497937202454
1742766209167890200,1.29589013671875,0.051463883370161057,-0.8758022785186768,0.2648022770881653
1742766209170287600,1.29828759765625,0.0594048947095871,-0.8243383765220642,0.22097399830818176
1742766209172684800,1.300684814453125,0.06490252166986465,-0.7554653286933899,0.1785201132297516
1742766209175082000,1.30308203125,0.06795676052570343,-0.6817055344581604,0.13957859575748444
1742766209177479200,1.305479248046875,0.07452336698770523,-0.6103891134262085,0.0981936976313591
1742766209179876400,1.30787646484375,0.08246438205242157,-0.5415160655975342,0.058183200657367706
1742766209182273500,1.3102734375,0.09284878522157669,-0.4813476502895355,0.022754060104489326
1742766209184670700,1.312670654296875,0.10705098509788513,-0.42484426498413086,-0.012827792204916477
1742766209187068200,1.315068115234375,0.11987877637147903,-0.3721587061882019,-0.04703523963689804
1742766209189465300,1.31746533203125,0.13301199674606323,-0.32573428750038147,-0.07543963938951492
1742766209191862500,1.319862548828125,0.14110571146011353,-0.2867927849292755,-0.10140064358711243
1742766209194259700,1.322259765625,0.14813046157360077,-0.2554868757724762,-0.1250709742307663
1742766209196657000,1.324656982421875,0.15408621728420258,-0.23410721123218536,-0.14400723576545715
1742766209199054000,1.32705419921875,0.16004198789596558,-0.2214321345090866,-0.15714046359062195
1742766209201451300,1.329451171875,0.16599774360656738,-0.2176143378019333,-0.16660858690738678
1742766209203848400,1.331848388671875,0.16844113171100616,-0.22005772590637207,-0.16905197501182556
1742766209206246000,1.334245849609375,0.17210622131824493,-0.2286095917224884,-0.17027367651462555
1742766209208643000,1.33664306640625,0.17348061501979828,-0.2348707765340805,-0.16798299551010132
1742766209211040300,1.339040283203125,0.17714570462703705,-0.23991025984287262,-0.16798299551010132
1742766209213437400,1.3414375,0.18569757044315338,-0.24479703605175018,-0.1704263836145401
1742766209215834600,1.343834716796875,0.1954711228609085,-0.24464432895183563,-0.17271706461906433
1742766209218231800,1.346231689453125,0.2113531529903412,-0.24815669655799866,-0.1763821393251419
1742766209220629000,1.34862890625,0.2235700935125351,-0.24433889985084534,-0.17393875122070312
1742766209223026200,1.351026123046875,0.23563432693481445,-0.241742804646492,-0.1692046970129013
1742766209225423400,1.35342333984375,0.24662958085536957,-0.23532891273498535,-0.16431790590286255
1742766209227820500,1.355820556640625,0.24785128235816956,-0.22540263831615448,-0.15484978258609772
1742766209230218000,1.358218017578125,0.24540787935256958,-0.21425467729568481,-0.14874130487442017
1742766209232615200,1.360615234375,0.24525517225265503,-0.19195875525474548,-0.1378987729549408
1742766209235012400,1.363012451171875,0.24617144465446472,-0.14965757727622986,-0.12216944992542267
1742766209237409500,1.365409423828125,0.2554868757724762,-0.08612946420907974,-0.10384403169155121
1742766209239806700,1.367806640625,0.2733541429042816,-0.0038177953101694584,-0.08185353130102158
1742766209242204000,1.370203857421875,0.30068957805633545,0.09483403712511063,-0.062153708189725876
1742766209244601000,1.37260107421875,0.3268032968044281,0.20707722008228302,-0.037567105144262314
1742766209246998300,1.374998291015625,0.34696123003959656,0.3180987238883972,-0.011911521665751934
1742766209249395700,1.377395751953125,0.3584146201610565,0.4265241026878357,0.011453386396169662
1742766209251793000,1.37979296875,0.3639122545719147,0.5285356044769287,0.033596597611904144
1742766209254190000,1.382190185546875,0.3633013963699341,0.6218425035476685,0.05207473039627075
1742766209256587300,1.384587158203125,0.3567348122596741,0.6977402567863464,0.0716218426823616
1742766209258984400,1.386984375,0.34283801913261414,0.7597413063049316,0.09590301662683487
1742766209261381600,1.389381591796875,0.32069480419158936,0.8153283596038818,0.12247487902641296
1742766209263778800,1.39177880859375,0.29351210594177246,0.8646543025970459,0.15973655879497528
1742766209266176000,1.394176025390625,0.26907822489738464,0.9040539264678955,0.1969982385635376
1742766209268573200,1.3965732421875,0.24097923934459686,0.9245173335075378,0.23899398744106293
1742766209270970600,1.398970703125,0.20814619958400726,0.9364288449287415,0.27839362621307373
1742766209273367800,1.401367919921875,0.1763821393251419,0.9520054459571838,0.3167243003845215
1742766209275765000,1.403764892578125,0.14706148207187653,0.9863656163215637,0.3480302393436432
1742766209278162200,1.406162109375,0.12705622613430023,1.054627776145935,0.36513394117355347
1742766209280559400,1.408559326171875,0.11300674080848694,1.1490037441253662,0.3692571818828583
1742766209282956500,1.41095654296875,0.10735640674829483,1.251167893409729,0.36513394117355347
1742766209285353700,1.413353759765625,0.10903623700141907,1.3496670722961426,0.35856732726097107
1742766209287751000,1.4157509765625,0.11086877435445786,1.434574842453003,0.35200074315071106
1742766209290148400,1.4181484375,0.10918894410133362,1.4968812465667725,0.34879377484321594
1742766209292545500,1.420545654296875,0.10033166408538818,1.541625738143921,0.34192174673080444
1742766209294942700,1.422942626953125,0.09040539711713791,1.567739486694336,0.3324536085128784
1742766209297340000,1.42533984375,0.07681404054164886,1.5839269161224365,0.32191649079322815
1742766209299737000,1.427737060546875,0.06688777357339859,1.5924787521362305,0.30878329277038574
1742766209302134300,1.43013427734375,0.05344913527369499,1.5975183248519897,0.2958027720451355
1742766209304531500,1.432531494140625,0.037567105144262314,1.5949221849441528,0.2814478874206543
1742766209306928600,1.4349287109375,0.021685076877474785,1.592326045036316,0.2695363461971283
1742766209309326000,1.437326171875,0.0021379655227065086,1.5859122276306152,0.25029465556144714
1742766209311723300,1.43972314453125,-0.02107422985136509,1.5746115446090698,0.23364907503128052
1742766209314120400,1.442120361328125,-0.05390727147459984,1.570641040802002,0.21333840489387512
1742766209316517600,1.444517578125,-0.09681928902864456,1.5788874626159668,0.19318044185638428
1742766209318914800,1.446914794921875,-0.14706148207187653,1.6022523641586304,0.17302247881889343
1742766209321312000,1.44931201171875,-0.1960819661617279,1.640277624130249,0.16737215220928192
1742766209323709200,1.451709228515625,-0.24525517225265503,1.6784555912017822,0.15927842259407043
1742766209326106400,1.4541064453125,-0.28694549202919006,1.715259075164795,0.15836215019226074
1742766209328503600,1.456503662109375,-0.3298575282096863,1.7435108423233032,0.1632489264011383
1742766209330901000,1.45890087890625,-0.3701734244823456,1.7641268968582153,0.17775654792785645
1742766209333298200,1.461298095703125,-0.4068242609500885,1.776038408279419,0.19333316385746002
1742766209335695400,1.4636953125,-0.4396573007106781,1.778023600578308,0.21837788820266724
1742766209338092500,1.466092529296875,-0.46989426016807556,1.7624469995498657,0.24815669655799866
1742766209340489700,1.46848974609375,-0.5001311898231506,1.7294613122940063,0.2826695740222931
1742766209342887000,1.470886962890625,-0.5276193022727966,1.6841058731079102,0.3180987238883972
1742766209345284000,1.4732841796875,-0.5599942207336426,1.6236320734024048,0.35474956035614014
1742766209347681300,1.475681396484375,-0.5885513424873352,1.5459016561508179,0.39598172903060913
1742766209350065200,1.478065185546875,-0.6122216582298279,1.4605357646942139,0.4396573007106781
1742766209352476000,1.480475830078125,-0.6271874308586121,1.3591351509094238,0.4856235682964325
1742766209354873000,1.482873046875,-0.6397097706794739,1.2490298748016357,0.5361711978912354
1742766209357257000,1.485257080078125,-0.6424586176872253,1.151447057723999,0.5833591222763062
1742766209359667500,1.48766748046875,-0.6368082761764526,1.0590564012527466,0.626882016658783
1742766209362064600,1.490064697265625,-0.6311579346656799,0.9654440879821777,0.6693359017372131
1742766209364461800,1.4924619140625,-0.629172682762146,0.8729007244110107,0.7091936469078064
1742766209366859000,1.49485888671875,-0.6284091472625732,0.7954758405685425,0.7374453544616699
1742766209369256400,1.49725634765625,-0.6267293095588684,0.730573296546936,0.7572978734970093
1742766209371653600,1.499653564453125,-0.6201626658439636,0.6682668924331665,0.7748597264289856
1742766209374050800,1.50205078125,-0.6172611713409424,0.6071822047233582,0.7887565493583679
1742766209376448000,1.504447998046875,-0.61313796043396,0.5535803437232971,0.7979192137718201
1742766209378832000,1.506831787109375,-0.6163448691368103,0.5024218559265137,0.804791271686554
1742766209381242400,1.509242431640625,-0.6223006248474121,0.46363306045532227,0.8044858574867249
1742766209383639600,1.5116396484375,-0.6306998133659363,0.4437805414199829,0.7924215793609619
1742766209386023400,1.5140234375,-0.6416950225830078,0.43385425209999084,0.7698202729225159
1742766209388434000,1.516433837890625,-0.6526902914047241,0.43018919229507446,0.7363763451576233
1742766209390831000,1.5188310546875,-0.6650599241256714,0.4277457892894745,0.6969767212867737
1742766209393215000,1.521215087890625,-0.6737645268440247,0.42927291989326477,0.6516213417053223
1742766209395625700,1.523625732421875,-0.6910209655761719,0.4343124032020569,0.6051968932151794
1742766209398023000,1.52602294921875,-0.7159129977226257,0.47050508856773376,0.5398362874984741
1742766209400406800,1.52840673828125,-0.7247702479362488,0.49707695841789246,0.47554460167884827
1742766209402817300,1.5308173828125,-0.7287407517433167,0.5010474920272827,0.41949936747550964
1742766209405214500,1.53321435546875,-0.724006712436676,0.4990622103214264,0.36223241686820984
1742766209407598300,1.535598388671875,-0.7072083950042725,0.5021164417266846,0.30252209305763245
1742766209410008800,1.5380087890625,-0.6829272508621216,0.5015056133270264,0.24281178414821625
1742766209412406300,1.54040625,-0.6525375843048096,0.49234288930892944,0.18554484844207764
1742766209414790100,1.5427900390625,-0.6221479177474976,0.48424917459487915,0.13652436435222626
1742766209417200600,1.54520068359375,-0.5819846987724304,0.46867257356643677,0.10659284889698029
1742766209419597800,1.547597900390625,-0.5416688323020935,0.453095942735672,0.08612946420907974
1742766209421995000,1.5499951171875,-0.49768781661987305,0.4375193417072296,0.07650861889123917
1742766209424392200,1.55239208984375,-0.4524851143360138,0.4205683469772339,0.07635590434074402
1742766209426789400,1.554789306640625,-0.4095730781555176,0.40850409865379333,0.09055810421705246
1742766209429186800,1.557186767578125,-0.37292224168777466,0.40132665634155273,0.10842538625001907
1742766209431584000,1.559583984375,-0.3399364948272705,0.4014793634414673,0.13347013294696808
1742766209433981200,1.561981201171875,-0.3155026137828827,0.4152234196662903,0.16217994689941406
1742766209436378400,1.56437841796875,-0.2973299026489258,0.44393324851989746,0.19333316385746002
1742766209438775600,1.566775634765625,-0.2852656841278076,0.4862344264984131,0.22586077451705933
1742766209441172700,1.5691728515625,-0.28312769532203674,0.5421269536018372,0.26190075278282166
1742766209443570000,1.57156982421875,-0.284654825925827,0.6079457402229309,0.2945810854434967
1742766209445967000,1.573967041015625,-0.2948864996433258,0.6810947060585022,0.3248180150985718
1742766209448364300,1.5763642578125,-0.30633988976478577,0.760657548904419,0.3527642786502838
1742766209450761500,1.578761474609375,-0.3286358118057251,0.8336538076400757,0.37826716899871826
1742766209453159000,1.581158935546875,-0.35230615735054016,0.8993198871612549,0.4014793634414673
1742766209455556000,1.58355615234375,-0.3781144618988037,0.9500201940536499,0.420873761177063
1742766209457953300,1.585953369140625,-0.3990359604358673,0.9770501852035522,0.43538138270378113
1742766209460350500,1.5883505859375,-0.4136963188648224,0.9768974781036377,0.44484952092170715
1742766209462747600,1.59074755859375,-0.41949936747550964,0.9518527388572693,0.4518742561340332
1742766209465144800,1.593144775390625,-0.41797223687171936,0.9069554805755615,0.45049986243247986
1742766209467542000,1.5955419921875,-0.40422818064689636,0.8461761474609375,0.439351886510849
1742766209469939200,1.597939208984375,-0.3793361485004425,0.7730271816253662,0.420873761177063
1742766209472323000,1.600322998046875,-0.3483356535434723,0.6937697529792786,0.38941511511802673
1742766209474733800,1.60273388671875,-0.3199312388896942,0.6183301210403442,0.3483356535434723
1742766209477131000,1.605131103515625,-0.2904578745365143,0.5567872524261475,0.2930539846420288
1742766209479515000,1.607514892578125,-0.2573194205760956,0.4928010404109955,0.22937314212322235
1742766209481925400,1.60992529296875,-0.2276933193206787,0.42881476879119873,0.16340164840221405
1742766209484322600,1.612322509765625,-0.20432840287685394,0.36849361658096313,0.0925433561205864
1742766209486719700,1.6147197265625,-0.1835595965385437,0.3229855000972748,0.01954711228609085
1742766209489117000,1.617116943359375,-0.17149536311626434,0.29259583353996277,-0.0594048947095871
1742766209491514400,1.619514404296875,-0.16187451779842377,0.2770192325115204,-0.13942588865756989
1742766209493911600,1.62191162109375,-0.15469707548618317,0.2725905776023865,-0.2157817929983139
1742766209496308700,1.624308837890625,-0.14767232537269592,0.26938363909721375,-0.2874036431312561
1742766209498706000,1.626705810546875,-0.14064757525920868,0.2736595869064331,-0.3590254783630371
1742766209501103000,1.62910302734375,-0.13484452664852142,0.28282228112220764,-0.4294256269931793
1742766209503500300,1.631500244140625,-0.13026317954063416,0.2895416021347046,-0.49616068601608276
1742766209505897500,1.6338974609375,-0.1316375881433487,0.2924431264400482,-0.5616740584373474
1742766209508294700,1.636294677734375,-0.130721315741539,0.30038413405418396,-0.6261184215545654
1742766209510691800,1.63869189453125,-0.12613995373249054,0.3020639717578888,-0.6881194114685059
1742766209513089000,1.641089111328125,-0.12629267573356628,0.2999260127544403,-0.7453863620758057
1742766209515486500,1.643486572265625,-0.12644538283348083,0.3052709102630615,-0.8026533126831055
1742766209517883600,1.645883544921875,-0.12797249853610992,0.3106158375740051,-0.8539644479751587
1742766209520280800,1.64828076171875,-0.14141114056110382,0.3071034550666809,-0.9040539264678955
1742766209522678000,1.650677978515625,-0.15744587779045105,0.30099499225616455,-0.9578084945678711
1742766209525075200,1.6530751953125,-0.16859383881092072,0.2924431264400482,-1.0066763162612915
1742766209527472400,1.655472412109375,-0.18310146033763885,0.2689255177974701,-1.0521844625473022
1742766209529869600,1.65786962890625,-0.19883078336715698,0.2166980654001236,-1.1038010120391846
1742766209532267000,1.66026708984375,-0.21562908589839935,0.15714046359062195,-1.1566393375396729
1742766209534664200,1.662664306640625,-0.23227466642856598,0.07375980913639069,-1.2096302509307861
1742766209537061400,1.665061279296875,-0.24510246515274048,-0.04077405482530594,-1.2604832649230957
1742766209539458600,1.66745849609375,-0.2648022770881653,-0.20875705778598785,-1.318819284439087
1742766209541855700,1.669855712890625,-0.2901524603366852,-0.4640912115573883,-1.388455867767334
1742766209544239600,1.672239501953125,-0.3220692276954651,-0.7979192137718201,-1.4655753374099731
1742766209546650000,1.674650146484375,-0.34940463304519653,-1.1204465627670288,-1.5379606485366821
1742766209549047300,1.67704736328125,-0.3623851239681244,-1.368297815322876,-1.5932424068450928
1742766209551431200,1.67943115234375,-0.36360684037208557,-1.5674340724945068,-1.6338636875152588
1742766209553842000,1.681842041015625,-0.3674246370792389,-1.724269151687622,-1.6598247289657593
1742766209556239000,1.684239013671875,-0.37139514088630676,-1.860029935836792,-1.6666967868804932
1742766209558623000,1.686623046875,-0.38162681460380554,-1.9511988162994385,-1.6541743278503418
1742766209561033500,1.689033447265625,-0.3958290219306946,-1.9927364587783813,-1.6268389225006104
1742766209563430700,1.6914306640625,-0.4152234196662903,-1.9893767833709717,-1.589882731437683
1742766209565814500,1.693814453125,-0.4349232614040375,-1.951351523399353,-1.5382660627365112
1742766209568225000,1.69622509765625,-0.4572191834449768,-1.8797297477722168,-1.4817627668380737
1742766209570622200,1.698622314453125,-0.46607646346092224,-1.7893242835998535,-1.4060176610946655
1742766209573006000,1.701006103515625,-0.4677563011646271,-1.6839531660079956,-1.3171393871307373
1742766209575416800,1.703416748046875,-0.4671454429626465,-1.563768982887268,-1.2281084060668945
1742766209577814000,1.70581396484375,-0.46042612195014954,-1.4321314096450806,-1.1438114643096924
1742766209580211200,1.708211181640625,-0.446529358625412,-1.2965233325958252,-1.0724951028823853
1742766209582608400,1.7106083984375,-0.4240806996822357,-1.1633585691452026,-1.015686273574829
1742766209585005600,1.713005615234375,-0.39918869733810425,-1.0350806713104248,-0.9695672988891602
1742766209587402800,1.71540283203125,-0.3730749487876892,-0.9177979826927185,-0.9330691695213318
1742766209589800000,1.717800048828125,-0.34818294644355774,-0.8205205798149109,-0.906191885471344
1742766209592197400,1.720197265625,-0.3229855000972748,-0.7430956959724426,-0.8842014074325562
1742766209594594600,1.722594482421875,-0.3002314269542694,-0.6794148683547974,-0.8660287261009216
1742766209596991700,1.72499169921875,-0.27854636311531067,-0.621995210647583,-0.8513683676719666
1742766209599389000,1.727388916015625,-0.25945737957954407,-0.5657972693443298,-0.8367080092430115
1742766209601786000,1.7297861328125,-0.2414373755455017,-0.5071559548377991,-0.8183826208114624
1742766209604183300,1.732183349609375,-0.2235700935125351,-0.4497362971305847,-0.7965448498725891
1742766209606580500,1.73458056640625,-0.20555010437965393,-0.39231663942337036,-0.7711946368217468
1742766209608977700,1.736977783203125,-0.19119518995285034,-0.3374931216239929,-0.7505785822868347
1742766209611375000,1.739375,-0.17454960942268372,-0.2838912606239319,-0.7262973785400391
1742766209613772300,1.741772216796875,-0.15775130689144135,-0.22906772792339325,-0.6962131857872009
1742766209616169500,1.74416943359375,-0.1385096162557602,-0.1754658818244934,-0.6624638438224792
1742766209618566700,1.746566650390625,-0.11315945535898209,-0.12186402827501297,-0.6311579346656799
1742766209620963800,1.7489638671875,-0.09269607067108154,-0.07314895838499069,-0.6093201637268066
1742766209623361000,1.751361083984375,-0.07574506103992462,-0.029473381116986275,-0.5876350402832031
1742766209625758200,1.75375830078125,-0.07482878863811493,0.005344913341104984,-0.575570821762085
1742766209628155400,1.7561552734375,-0.08719844371080399,0.03008422814309597,-0.5657972693443298
1742766209630552600,1.758552490234375,-0.10078980028629303,0.05482354015111923,-0.5644228458404541
1742766209632949800,1.76094970703125,-0.11682453751564026,0.08704573661088943,-0.569004237651825
1742766209635347200,1.76334716796875,-0.13301199674606323,0.12430741637945175,-0.5770979523658752
1742766209637744400,1.765744384765625,-0.14782503247261047,0.1579040139913559,-0.5923691391944885
1742766209640141600,1.7681416015625,-0.16034740209579468,0.18539214134216309,-0.6137487888336182
1742766209642538800,1.770538818359375,-0.16905197501182556,0.20280128717422485,-0.6410841941833496
1742766209644936000,1.77293603515625,-0.17057909071445465,0.20936790108680725,-0.6791094541549683
1742766209647333000,1.7753330078125,-0.16813570261001587,0.19592925906181335,-0.7246175408363342
1742766209649730300,1.777730224609375,-0.16080553829669952,0.16401249170303345,-0.7785248160362244
1742766209652127700,1.780127685546875,-0.15332266688346863,0.11575555801391602,-0.8289197087287903
1742766209654525000,1.78252490234375,-0.14217470586299896,0.06765133142471313,-0.8745805621147156
1742766209656922000,1.784922119140625,-0.12736165523529053,0.031916771084070206,-0.9116895198822021
1742766209659319300,1.7873193359375,-0.10659284889698029,0.014965757727622986,-0.9465078115463257
1742766209661716500,1.789716552734375,-0.08719844371080399,0.014049487188458443,-0.9775083065032959
1742766209664113700,1.79211376953125,-0.06902574002742767,0.023212196305394173,-1.0085088014602661
1742766209666510800,1.7945107421875,-0.04978405311703682,0.034818295389413834,-1.0395092964172363
1742766209668908000,1.796907958984375,-0.03649812191724777,0.047646086663007736,-1.0668447017669678
1742766209671305200,1.79930517578125,-0.02076880633831024,0.05421269312500954,-1.0954018831253052
1742766209673702700,1.80170263671875,-0.0038177953101694584,0.06337540596723557,-1.1228899955749512
1742766209676099800,1.804099853515625,0.010537114925682545,0.07116370648145676,-1.1502254009246826
1742766209678497000,1.8064970703125,0.02504473738372326,0.08643488585948944,-1.1787824630737305
1742766209680894200,1.808894287109375,0.03588727489113808,0.0978882759809494,-1.2026054859161377
1742766209683291400,1.81129150390625,0.046729814261198044,0.11315945535898209,-1.2168077230453491
1742766209685688600,1.8136884765625,0.05864133685827255,0.13331741094589233,-1.2273448705673218
1742766209688085800,1.816085693359375,0.07070557028055191,0.14843589067459106,-1.2333005666732788
1742766209690483000,1.81848291015625,0.08292251825332642,0.1560714691877365,-1.2392563819885254
1742766209692880100,1.820880126953125,0.09513945877552032,0.14874130487442017,-1.2523895502090454
1742766209695277600,1.823277587890625,0.10857810080051422,0.13652436435222626,-1.2679661512374878
1742766209697674800,1.8256748046875,0.12552911043167114,0.12812520563602448,-1.2907202243804932
1742766209700072000,1.828072021484375,0.13056860864162445,0.10338589549064636,-1.3040062189102173
1742766209702469000,1.83046923828125,0.13453911244869232,0.05741964280605316,-1.3127107620239258
1742766209704866300,1.8328662109375,0.1360662281513214,0.01511846948415041,-1.3224843740463257
1742766209707263500,1.835263427734375,0.13148486614227295,-0.033443886786699295,-1.3299671411514282
1742766209709660700,1.83766064453125,0.11483928561210632,-0.09590301662683487,-1.3469182252883911
1742766209712057900,1.840057861328125,0.0978882759809494,-0.13316470384597778,-1.3794457912445068
1742766209714455300,1.842455322265625,0.10277505218982697,-0.15546062588691711,-1.4105989933013916
1742766209716852500,1.8448525390625,0.11239589750766754,-0.14751961827278137,-1.4475553035736084
1742766209719249700,1.847249755859375,0.12858334183692932,-0.20219044387340546,-1.4503041505813599
1742766209721646800,1.849646728515625,0.14736689627170563,-0.26067906618118286,-1.4374762773513794
1742766209724030700,1.85203076171875,0.17348061501979828,-0.3127537965774536,-1.4211361408233643
1742766209726441200,1.854441162109375,0.20066332817077637,-0.358720064163208,-1.399909257888794
1742766209728838400,1.85683837890625,0.23258009552955627,-0.3710896968841553,-1.3606622219085693
1742766209731222300,1.85922216796875,0.270452618598938,-0.3509317636489868,-1.3153069019317627
1742766209733633000,1.861633056640625,0.2901524603366852,-0.3549022674560547,-1.26399564743042
1742766209736030200,1.8640302734375,0.3005368411540985,-0.40254834294319153,-1.184432864189148
1742766209738414000,1.8664140625,0.30939415097236633,-0.41537612676620483,-1.1128109693527222
1742766209740824600,1.868824462890625,0.3242071866989136,-0.4143071472644806,-1.0544750690460205
1742766209743221800,1.8712216796875,0.33413344621658325,-0.41079479455947876,-1.0019421577453613
1742766209745619000,1.873618896484375,0.335507869720459,-0.4062134325504303,-0.9517000317573547
1742766209748016000,1.87601611328125,0.3342861533164978,-0.3965925872325897,-0.9051229357719421
1742766209750413300,1.878413330078125,0.33566057682037354,-0.3918585181236267,-0.8550334572792053
1742766209752810500,1.880810546875,0.3382566571235657,-0.390942245721817,-0.8049439787864685
1742766209755208000,1.8832080078125,0.3408527672290802,-0.3874298632144928,-0.7487460374832153
1742766209757605000,1.885605224609375,0.33856210112571716,-0.38162681460380554,-0.6962131857872009
1742766209760002300,1.888002197265625,0.3387148082256317,-0.37444937229156494,-0.6426113247871399
1742766209762399500,1.8903994140625,0.33764582872390747,-0.3674246370792389,-0.5900784730911255
1742766209764796700,1.892796630859375,0.3402419090270996,-0.36635565757751465,-0.5398362874984741
1742766209767193900,1.89519384765625,0.3477247953414917,-0.3778090178966522,-0.4921901822090149
1742766209769591000,1.897591064453125,0.35413870215415955,-0.3955236077308655,-0.4506525695323944
1742766209771988200,1.89998828125,0.3642176687717438,-0.4106420576572418,-0.4124746024608612
1742766209774385700,1.9023857421875,0.37047886848449707,-0.423164427280426,-0.38162681460380554
1742766209776782800,1.904782958984375,0.3755183517932892,-0.43324342370033264,-0.3602471649646759
1742766209779180000,1.907179931640625,0.37796175479888916,-0.42957833409309387,-0.34696123003959656
1742766209781564000,1.90956396484375,0.3778090178966522,-0.42331716418266296,-0.3446705639362335
1742766209783974400,1.911974365234375,0.37414395809173584,-0.4146125912666321,-0.35291701555252075
1742766209786371600,1.91437158203125,0.3727695345878601,-0.40575528144836426,-0.3695625960826874
1742766209788755500,1.91675537109375,0.3762819170951843,-0.3930802047252655,-0.3921639323234558
1742766209791166000,1.919166015625,0.37735089659690857,-0.3830012381076813,-0.42545512318611145
1742766209793563100,1.921563232421875,0.37353309988975525,-0.3752129375934601,-0.4671454429626465
1742766209795947000,1.923947021484375,0.3658975064754486,-0.36131614446640015,-0.5135698318481445
1742766209798357800,1.926357666015625,0.3545968234539032,-0.3436015844345093,-0.5648810267448425
1742766209800755000,1.9287548828125,0.3446705639362335,-0.33230090141296387,-0.6160394549369812
1742766209803138800,1.931138916015625,0.3321481943130493,-0.33077380061149597,-0.6673506498336792
1742766209805549300,1.93354931640625,0.3211529552936554,-0.3393256664276123,-0.7211052179336548
1742766209807946500,1.935946533203125,0.30756160616874695,-0.353985995054245,-0.7783721089363098
1742766209810343700,1.93834375,0.29290124773979187,-0.37002071738243103,-0.8310576677322388
1742766209812740900,1.940740966796875,0.2757975459098816,-0.3787252902984619,-0.8823688626289368
1742766209815138300,1.94313818359375,0.2644968628883362,-0.36971530318260193,-0.9275715351104736
1742766209817535500,1.945535400390625,0.2582356929779053,-0.3509317636489868,-0.9680401682853699
1742766209819932700,1.9479326171875,0.258999228477478,-0.3232909142971039,-1.002553105354309
1742766209822329900,1.950329833984375,0.26602399349212646,-0.28938889503479004,-1.0237799882888794
1742766209824727000,1.95272705078125,0.2767138183116913,-0.24052110314369202,-1.0366077423095703
1742766209827124200,1.955124267578125,0.29091599583625793,-0.18554484844207764,-1.0410364866256714
1742766209829521400,1.957521484375,0.30878329277038574,-0.11926792562007904,-1.03828763961792
1742766209831905300,1.9599052734375,0.33382803201675415,-0.04062134400010109,-1.0222529172897339
1742766209834316000,1.96231591796875,0.36482852697372437,0.05803048983216286,-1.0062181949615479
1742766209836713200,1.964713134765625,0.3968980014324188,0.1966928243637085,-0.9958337545394897
1742766209839097000,1.96709716796875,0.43018919229507446,0.32909396290779114,-0.9842276573181152
1742766209841507600,1.969507568359375,0.4709632396697998,0.4327852725982666,-0.9549070000648499
1742766209843904800,1.97190478515625,0.5202891230583191,0.5364766120910645,-0.9222266674041748
1742766209846288600,1.97428857421875,0.5697677731513977,0.6378772258758545,-0.8893936276435852
1742766209848699100,1.97669921875,0.6058077812194824,0.7278245091438293,-0.8590039610862732
1742766209851096300,1.979096435546875,0.6212316751480103,0.8037222623825073,-0.8286142945289612
1742766209853493500,1.981493408203125,0.6097782850265503,0.8771766424179077,-0.8270871639251709
1742766209855891000,1.983890869140625,0.6236750483512878,0.9770501852035522,-0.8359444737434387
1742766209858288000,1.9862880859375,0.6754443645477295,1.073564052581787,-0.8305995464324951
1742766209860685300,1.988685302734375,0.7441646456718445,1.1851963996887207,-0.8133431077003479
1742766209863082500,1.99108251953125,0.8050966858863831,1.207950472831726,-0.7618792653083801
1742766209865479700,1.993479736328125,0.8339592218399048,1.1503781080245972,-0.677582323551178
1742766209867863600,1.995863525390625,0.8480086922645569,1.0914313793182373,-0.5848862528800964
1742766209870274000,1.998274169921875,0.859767496585846,1.0349279642105103,-0.5041016936302185
1742766209872671200,2.000671142578125,0.8738170266151428,0.9747595191001892,-0.4280512034893036
1742766209875068700,2.003068603515625,0.8806890249252319,0.9008470177650452,-0.3509317636489868
1742766209877465900,2.0054658203125,0.8826742768287659,0.8194515705108643,-0.2858765125274658
1742766209879863000,2.007863037109375,0.8825215697288513,0.7143858671188354,-0.223264679312706
1742766209882247000,2.010246826171875,0.8725953102111816,0.5942016839981079,-0.1644706279039383
1742766209884657400,2.012657470703125,0.8565605878829956,0.4691306948661804,-0.11270131915807724
1742766209887054600,2.0150546875,0.8283088803291321,0.34635040163993835,-0.062153708189725876
1742766209889438500,2.0174384765625,0.7889092564582825,0.23593975603580475,-0.0198525357991457
1742766209891849200,2.01984912109375,0.7458444833755493,0.13560809195041656,0.015423892997205257
1742766209894246400,2.022246337890625,0.7015580534934998,0.03268032893538475,0.04337015375494957
1742766209896630000,2.024630126953125,0.6658235192298889,-0.0725381150841713,0.06780404597520828
1742766209899040800,2.027040771484375,0.6300889253616333,-0.18401773273944855,0.08139539510011673
1742766209901438000,2.02943798828125,0.5954233407974243,-0.29030516743659973,0.0856713280081749
1742766209903821800,2.03182177734375,0.5706840753555298,-0.4002576768398285,0.08368607610464096
1742766209906232300,2.034232421875,0.5396835803985596,-0.5063923597335815,0.07589777559041977
1742766209908629500,2.03662939453125,0.5123481154441833,-0.6088619828224182,0.062153708189725876
1742766209911013400,2.039013427734375,0.48730340600013733,-0.7075138092041016,0.042453885078430176
1742766209913424000,2.041423828125,0.4622586667537689,-0.7922688722610474,0.014507622458040714
1742766209915821300,2.0438212890625,0.441795289516449,-0.8620582222938538,-0.021685076877474785
1742766209918205200,2.046205078125,0.4286620616912842,-0.9203941226005554,-0.07085828483104706
1742766209920615700,2.04861572265625,0.4227063059806824,-0.9688037633895874,-0.12491826713085175
1742766209923012900,2.051012939453125,0.41171106696128845,-0.9946120381355286,-0.1882936656475067
1742766209925396700,2.053396728515625,0.3993414044380188,-1.0005677938461304,-0.2527380585670471
1742766209927807200,2.05580712890625,0.3892624080181122,-0.9915578365325928,-0.31825143098831177
1742766209930204400,2.058204345703125,0.3840702176094055,-0.9799517393112183,-0.3874298632144928
1742766209932601600,2.0606015625,0.37887802720069885,-0.964680552482605,-0.4553866386413574
1742766209934999000,2.0629990234375,0.3808632791042328,-0.934290885925293,-0.5172349214553833
1742766209937396200,2.065396240234375,0.3877353072166443,-0.8915315866470337,-0.5706840753555298
1742766209939793400,2.06779345703125,0.39949411153793335,-0.8388460278511047,-0.6155813336372375
1742766209942190600,2.070190673828125,0.41354358196258545,-0.7809682488441467,-0.6534538269042969
1742766209944587800,2.072587890625,0.42514967918395996,-0.7233958840370178,-0.6876612901687622
1742766209946985000,2.07498486328125,0.4405735731124878,-0.6719319820404053,-0.7172874212265015
1742766209949382100,2.077382080078125,0.44988900423049927,-0.6230642199516296,-0.7443174123764038
1742766209951779600,2.079779541015625,0.4593571424484253,-0.5816792845726013,-0.7692093849182129
1742766209954163200,2.0821630859375,0.4637857675552368,-0.5390726923942566,-0.7844805717468262
1742766209956574000,2.084573974609375,0.4610369801521301,-0.49921491742134094,-0.7913526296615601
1742766209958971100,2.08697119140625,0.4546230733394623,-0.4518742561340332,-0.7945595979690552
1742766209961355000,2.08935498046875,0.4494308829307556,-0.3984251320362091,-0.7895200848579407
1742766209963765500,2.091765625,0.44042086601257324,-0.33886751532554626,-0.7760814428329468
1742766209966162700,2.09416259765625,0.4352286756038666,-0.2767138183116913,-0.7600467205047607
1742766209968546600,2.096546630859375,0.43232715129852295,-0.21333840489387512,-0.7418739795684814
1742766209970957000,2.09895703125,0.4259132444858551,-0.14492350816726685,-0.7223268747329712
1742766209973354200,2.101354248046875,0.42789849638938904,-0.0778830274939537,-0.6933116316795349
1742766209975738000,2.103738037109375,0.4422534108161926,-0.018019994720816612,-0.6583406329154968
1742766209978148900,2.10614892578125,0.4700469672679901,0.030542362481355667,-0.6174138784408569
1742766209980546000,2.108546142578125,0.49799323081970215,0.06795676052570343,-0.5743491649627686
1742766209982930000,2.110929931640625,0.5234960913658142,0.11285403370857239,-0.5262449383735657
1742766209985340400,2.11334033203125,0.5465555787086487,0.15897299349308014,-0.47829338908195496
1742766209987737600,2.115737548828125,0.5657972693443298,0.20493926107883453,-0.4315635859966278
1742766209990134800,2.118134765625,0.5876350402832031,0.24097923934459686,-0.38956785202026367
1742766209992532200,2.1205322265625,0.6047387719154358,0.26968905329704285,-0.35230615735054016
1742766209994929400,2.122929443359375,0.6143596172332764,0.2919849753379822,-0.3151971995830536
1742766209997326600,2.12532666015625,0.616802990436554,0.31290650367736816,-0.2817533016204834
1742766209999723800,2.127723876953125,0.6142069101333618,0.3426853120326996,-0.2564031481742859
1742766210002121000,2.130120849609375,0.6079457402229309,0.38483378291130066,-0.23593975603580475
1742766210004518100,2.13251806640625,0.5966450572013855,0.4306473135948181,-0.22127941250801086
1742766210006915300,2.134915283203125,0.5865660905838013,0.48043137788772583,-0.21746163070201874
1742766210009312500,2.1373125,0.576487123966217,0.5276193022727966,-0.22066856920719147
1742766210011696400,2.1396962890625,0.5688515305519104,0.5674771070480347,-0.22754059731960297
1742766210014107100,2.142107177734375,0.5599942207336426,0.5998520255088806,-0.24052110314369202
1742766210016504300,2.14450439453125,0.5500679612159729,0.6223006248474121,-0.26190075278282166
1742766210018888200,2.14688818359375,0.5401417016983032,0.6348230242729187,-0.2867927849292755
1742766210021298700,2.149298583984375,0.5277720093727112,0.6348230242729187,-0.3142809271812439
1742766210023696000,2.15169580078125,0.5143333673477173,0.6187883019447327,-0.34543412923812866
1742766210026093000,2.154093017578125,0.5010474920272827,0.5926745533943176,-0.3765873312950134
1742766210028490200,2.156490234375,0.487761527299881,0.5627430081367493,-0.4052971601486206
1742766210030887400,2.158887451171875,0.474475622177124,0.5303681492805481,-0.43293800950050354
1742766210033284600,2.16128466796875,0.46241137385368347,0.4955498278141022,-0.4605788290500641
1742766210035682000,2.16368212890625,0.4515688419342041,0.4569137394428253,-0.4859289824962616
1742766210038079200,2.166079345703125,0.44698747992515564,0.418430358171463,-0.5076140761375427
1742766210040476400,2.168476318359375,0.4459185004234314,0.38483378291130066,-0.5198310017585754
1742766210042873600,2.17087353515625,0.4485146105289459,0.358720064163208,-0.527161180973053
1742766210045270800,2.173270751953125,0.45111069083213806,0.3439069986343384,-0.5331169366836548
1742766210047668000,2.17566796875,0.4559974670410156,0.3402419090270996,-0.5355603098869324
1742766210050065200,2.178065185546875,0.46210595965385437,0.3414636254310608,-0.5380037426948547
1742766210052462600,2.180462646484375,0.4668400287628174,0.34039464592933655,-0.5427377820014954
1742766210054859800,2.18285986328125,0.47554460167884827,0.3318427801132202,-0.5511369109153748
1742766210057257000,2.185257080078125,0.48043137788772583,0.31321191787719727,-0.5596888065338135
1742766210059654100,2.187654052734375,0.48424917459487915,0.2933593988418579,-0.5716003179550171
1742766210062051300,2.19005126953125,0.4903576374053955,0.28221142292022705,-0.576487123966217
1742766210064448500,2.192448486328125,0.4903576374053955,0.2773246467113495,-0.5801522135734558
1742766210066845700,2.194845703125,0.4915793240070343,0.28343313932418823,-0.569309651851654
1742766210069243000,2.197242919921875,0.4928010404109955,0.30084228515625,-0.5502206683158875
1742766210071640000,2.19964013671875,0.48898324370384216,0.3205420970916748,-0.5297572612762451
1742766210074037200,2.202037353515625,0.4840964674949646,0.337798535823822,-0.5010474920272827
1742766210076434700,2.2044345703125,0.4793623983860016,0.34757208824157715,-0.47355934977531433
1742766210078831900,2.206831787109375,0.4756973087787628,0.3436015844345093,-0.44484952092170715
1742766210081229000,2.20922900390625,0.47111594676971436,0.33321717381477356,-0.3936910629272461
1742766210083626200,2.211626220703125,0.4640912115573883,0.3179459869861603,-0.3495573401451111
1742766210086023400,2.2140234375,0.45477578043937683,0.2654131352901459,-0.34161633253097534
1742766210088420600,2.216420654296875,0.44668206572532654,0.1916533261537552,-0.3289412558078766
1742766210090817800,2.21881787109375,0.44255882501602173,0.11056335270404816,-0.3067980408668518
1742766210093215200,2.22121533203125,0.4297310411930084,0.026724567636847496,-0.27854636311531067
1742766210095612400,2.2236123046875,0.40606072545051575,-0.0459662564098835,-0.2551814317703247
1742766210098009600,2.226009521484375,0.3820849657058716,-0.11117420345544815,-0.2435753494501114
1742766210100406800,2.22840673828125,0.36666107177734375,-0.17241163551807404,-0.23929941654205322
1742766210102804000,2.230803955078125,0.3574983477592468,-0.2411319613456726,-0.2360924631357193
1742766210105201200,2.233201171875,0.3555130958557129,-0.30343836545944214,-0.2376195788383484
1742766210107598300,2.235598388671875,0.34726667404174805,-0.3545968234539032,-0.23792500793933868
1742766210109995500,2.23799560546875,0.3365768492221832,-0.3883461356163025,-0.2357870489358902
1742766210112393000,2.24039306640625,0.3232909142971039,-0.40468630194664,-0.23105297982692719
1742766210114790100,2.2427900390625,0.3136700689792633,-0.4136963188648224,-0.22036315500736237
1742766210117187300,2.245187255859375,0.30633988976478577,-0.4175141155719757,-0.20845162868499756
1742766210119584500,2.24758447265625,0.30878329277038574,-0.4164451062679291,-0.18585027754306793
1742766210121981700,2.249981689453125,0.31626617908477783,-0.42392799258232117,-0.17393875122070312
1742766210124379000,2.25237890625,0.3298575282096863,-0.4362976551055908,-0.16095824539661407
1742766210126776000,2.254776123046875,0.34818294644355774,-0.44484952092170715,-0.15500248968601227
1742766210129173200,2.25717333984375,0.365286648273468,-0.4434750974178314,-0.1525591015815735
1742766210131570400,2.2595703125,0.3846810758113861,-0.43202173709869385,-0.15622419118881226
1742766210133968000,2.2619677734375,0.40285375714302063,-0.41675055027008057,-0.15958385169506073
1742766210136365000,2.264364990234375,0.4161396920681,-0.39918869733810425,-0.16553960740566254
1742766210138762200,2.26676220703125,0.42453885078430176,-0.3865135908126831,-0.1713426560163498
1742766210141159400,2.269159423828125,0.4318690001964569,-0.3802524209022522,-0.1760767251253128
1742766210143556600,2.271556640625,0.4330907166004181,-0.38391751050949097,-0.18096350133419037
1742766210145953800,2.273953857421875,0.4330907166004181,-0.39262208342552185,-0.18569757044315338
1742766210148351000,2.27635107421875,0.4318690001964569,-0.4049917459487915,-0.19531841576099396
1742766210150748200,2.278748046875,0.42957833409309387,-0.4262186884880066,-0.2026485800743103
1742766210153145600,2.2811455078125,0.42362257838249207,-0.4486673176288605,-0.20157960057258606
1742766210155542800,2.283542724609375,0.42011019587516785,-0.46363306045532227,-0.19928891956806183
1742766210157940000,2.28593994140625,0.416597843170166,-0.47111594676971436,-0.19944162666797638
1742766210160337200,2.288337158203125,0.4103366434574127,-0.465007483959198,-0.2029540091753006
1742766210162734300,2.290734375,0.40544986724853516,-0.45263782143592834,-0.20646637678146362
1742766210165131500,2.293131591796875,0.3967452943325043,-0.4352286756038666,-0.21471281349658966
1742766210167528700,2.29552880859375,0.3831539452075958,-0.41537612676620483,-0.22647161781787872
1742766210169926000,2.29792578125,0.3695625960826874,-0.3967452943325043,-0.24067382514476776
1742766210172323300,2.3003232421875,0.35597124695777893,-0.3755183517932892,-0.2548760175704956
1742766210174720500,2.302720458984375,0.3446705639362335,-0.3506263196468353,-0.27381229400634766
1742766210177117700,2.30511767578125,0.3345915973186493,-0.31092125177383423,-0.27946263551712036
1742766210179515000,2.307514892578125,0.3255815804004669,-0.252432644367218,-0.2814478874206543
1742766210181912000,2.309912109375,0.3214583694934845,-0.19867807626724243,-0.30740886926651
1742766210184309200,2.312309326171875,0.32603973150253296,-0.15362808108329773,-0.33688226342201233
1742766210186706400,2.31470654296875,0.3365768492221832,-0.11453386396169662,-0.3749074935913086
1742766210189103600,2.317103515625,0.3471139669418335,-0.08796200156211853,-0.42362257838249207
1742766210191487500,2.319487548828125,0.35536038875579834,-0.06383354216814041,-0.48073679208755493
1742766210193898200,2.321898193359375,0.3574983477592468,-0.04092676565051079,-0.5402944087982178
1742766210196295400,2.32429541015625,0.3570402264595032,-0.01695101149380207,-0.6009209752082825
1742766210198692600,2.326692626953125,0.3542914092540741,0.008399149402976036,-0.6639909744262695
1742766210201089800,2.32908984375,0.3501681983470917,0.036039989441633224,-0.7198835015296936
1742766210203487000,2.331487060546875,0.34726667404174805,0.06887302547693253,-0.7757760286331177
1742766210205884200,2.33388427734375,0.34696123003959656,0.09910997003316879,-0.8304468393325806
1742766210208281300,2.33628125,0.3452814221382141,0.12675081193447113,-0.8828269839286804
1742766210210678500,2.338678466796875,0.34375429153442383,0.15805672109127045,-0.9089407324790955
1742766210213076000,2.341075927734375,0.34100547432899475,0.1979145109653473,-0.9074136018753052
1742766210215473200,2.34347314453125,0.33596599102020264,0.22051586210727692,-0.939483106136322
1742766210217870300,2.345870361328125,0.3382566571235657,0.21196399629116058,-0.966971218585968
1742766210220267500,2.348267578125,0.3455868363380432,0.19241689145565033,-1.006523609161377
1742766210222664700,2.350664794921875,0.3530697226524353,0.16172181069850922,-1.0555440187454224
1742766210225062000,2.353061767578125,0.3530697226524353,0.12461283802986145,-1.1083823442459106
1742766210227459000,2.355458984375,0.3458922505378723,0.0850604772567749,-1.158624529838562
1742766210229856500,2.3578564453125,0.3301629424095154,0.047646086663007736,-1.195886254310608
1742766210232253700,2.360253662109375,0.314586341381073,0.005344913341104984,-1.2235270738601685
1742766210234637300,2.36263720703125,0.30130040645599365,-0.029626091942191124,-1.2369656562805176
1742766210237048000,2.365048095703125,0.28938889503479004,-0.06337540596723557,-1.2395617961883545
1742766210239445200,2.3674453125,0.27625566720962524,-0.09483403712511063,-1.2241379022598267
1742766210241829000,2.3698291015625,0.2667875289916992,-0.1175880953669548,-1.193290114402771
1742766210244239600,2.372239501953125,0.2560977041721344,-0.14400723576545715,-1.1577082872390747
1742766210246636800,2.37463671875,0.24540787935256958,-0.17928366363048553,-1.132816195487976
1742766210249020700,2.377020751953125,0.24342262744903564,-0.2304421216249466,-1.1117420196533203
1742766210251431200,2.37943115234375,0.24998924136161804,-0.28786176443099976,-1.0870027542114258
1742766210253828600,2.38182861328125,0.258999228477478,-0.34283801913261414,-1.0563076734542847
1742766210256212500,2.38421240234375,0.26067906618118286,-0.3915531039237976,-1.0231691598892212
1742766210258623000,2.386623046875,0.2513636350631714,-0.43171629309654236,-0.9936957955360413
1742766210261020200,2.389020263671875,0.2345653474330902,-0.46332764625549316,-0.9639169573783875
1742766210263404000,2.391404052734375,0.21532365679740906,-0.478751540184021,-0.9330691695213318
1742766210265814500,2.393814453125,0.19562382996082306,-0.5903838872909546,-0.8501466512680054
1742766210268211700,2.396211669921875,0.16752485930919647,-1.827044129371643,-0.2279987335205078
1742766210270595600,2.398595703125,0.11957334727048874,-2.6692497730255127,0.4289674758911133
1742766210273006300,2.40100634765625,0.11422843486070633,-2.060235023498535,0.457830011844635
1742766210275403500,2.403403564453125,0.04489727318286896,-0.6934643387794495,0.17409147322177887
1742766210277787400,2.405787353515625,-0.05405998229980469,0.4700469672679901,0.05375456064939499
1742766210280198000,2.408197998046875,-0.06963659077882767,0.6424586176872253,0.14782503247261047
1742766210282595000,2.410594970703125,0.008704573847353458,0.3199312388896942,0.2638860046863556
1742766210284979000,2.41297900390625,0.12048961967229843,0.19058434665203094,0.22723518311977386
1742766210287389400,2.415389404296875,0.17836740612983704,0.217308908700943,0.054365407675504684
1742766210289786600,2.41778662109375,0.20188501477241516,0.24494975805282593,-0.14706148207187653
1742766210292170500,2.42017041015625,0.23288552463054657,0.11774080991744995,-0.2635805904865265
1742766210294581200,2.422581298828125,0.3049654960632324,-0.08933641016483307,-0.29351210594177246
1742766210296978400,2.424978515625,0.395218163728714,-0.24907296895980835,-0.2779355049133301
1742766210299362300,2.4273623046875,0.45798271894454956,-0.30725616216659546,-0.23303823173046112
1742766210301772800,2.429772705078125,0.4818057715892792,-0.22372281551361084,-0.20142687857151031
1742766210304170000,2.432169921875,0.4700469672679901,-0.08582404255867004,-0.1635543555021286
1742766210306553900,2.434553955078125,0.44362783432006836,0.056961506605148315,-0.10903623700141907
1742766210308964400,2.43696435546875,0.4159869849681854,0.18081079423427582,-0.05925218388438225
1742766210311361800,2.43936181640625,0.3936910629272461,0.26251161098480225,-0.006261184345930815
1742766210313745700,2.44174560546875,0.3749074935913086,0.33688226342201233,0.02764083817601204
1742766210316156200,2.44415625,0.3527642786502838,0.3900259733200073,0.051769305020570755
1742766210318553300,2.44655322265625,0.3292466700077057,0.4283566474914551,0.05925218388438225
1742766210320937200,2.448937255859375,0.30099499225616455,0.4553866386413574,0.05344913527369499
1742766210323347700,2.45134765625,0.27656111121177673,0.45523393154144287,0.04749337583780289
1742766210325745000,2.453744873046875,0.25716668367385864,0.44393324851989746,0.0331384651362896
1742766210328128800,2.456128662109375,0.2438807636499405,0.41766682267189026,0.017409147694706917
1742766210330539500,2.45853955078125,0.2354816198348999,0.3865135908126831,-0.007788302376866341
1742766210332936700,2.460936767578125,0.2367033064365387,0.35444411635398865,-0.03894151374697685
1742766210335320600,2.463320556640625,0.24097923934459686,0.12613995373249054,0.010842538438737392
1742766210337731000,2.46573095703125,0.2408265322446823,-0.2725905776023865,0.17775654792785645
1742766210340128300,2.468128173828125,0.25655585527420044,-0.39506545662879944,0.2832804024219513
1742766210342512000,2.47051220703125,0.2652604281902313,-0.2367033064365387,0.26632940769195557
1742766210344922600,2.472922607421875,0.23807771503925323,-0.041232191026210785,0.23884128034114838
1742766210347319800,2.47531982421875,0.19592925906181335,0.04810422286391258,0.23945212364196777
1742766210349703700,2.47770361328125,0.15271180868148804,-0.020005248486995697,0.2773246467113495
1742766210352114400,2.480114501953125,0.1122431829571724,-0.12308572232723236,0.3506263196468353
1742766210354511600,2.48251171875,0.10689827054738998,-0.04352286830544472,0.37857258319854736
1742766210356895500,2.4848955078125,0.11942064017057419,0.2286095917224884,0.31947311758995056
1742766210359306000,2.487305908203125,0.10201149433851242,0.409420371055603,0.2739650011062622
1742766210361703200,2.489703125,0.062306419014930725,0.3649812340736389,0.3142809271812439
1742766210364087000,2.492087158203125,0.036039989441633224,0.3107685446739197,0.37002071738243103
1742766210366497500,2.49449755859375,0.049020491540431976,0.38071054220199585,0.3823903799057007
1742766210368894700,2.496894775390625,0.07589777559041977,0.5230379700660706,0.3689517378807068
1742766210371292200,2.499292236328125,0.08643488585948944,0.5929799675941467,0.3849864900112152
1742766210373689300,2.501689453125,0.07360709458589554,0.5500679612159729,0.44072631001472473
1742766210376086500,2.50408642578125,0.07146912813186646,0.5210527181625366,0.4931064546108246
1742766210378470400,2.506470458984375,0.09544488787651062,0.5972558856010437,0.49707695841789246
1742766210380881000,2.508880859375,0.12354385852813721,0.7374453544616699,0.45981526374816895
1742766210383278000,2.511278076171875,0.13377554714679718,0.8211314082145691,0.43049460649490356
1742766210385675300,2.51367529296875,0.1169772520661354,0.7922688722610474,0.4291202127933502
1742766210388072400,2.516072509765625,0.1041494607925415,0.7061394453048706,0.4512633979320526
1742766210390470000,2.518469970703125,0.1056765764951706,0.6711684465408325,0.4653128981590271
1742766210392867000,2.5208671875,0.11178504675626755,0.6786513328552246,0.4665345847606659
1742766210395264300,2.52326416015625,0.10934165865182877,0.6736118197441101,0.4796678125858307
1742766210397661400,2.525661376953125,0.09972081333398819,0.6807892918586731,0.4915793240070343
1742766210400045300,2.52804541015625,0.08353336155414581,0.7204943299293518,0.4931064546108246
1742766210402455800,2.530455810546875,0.051769305020570755,0.7301151752471924,0.5027272701263428
1742766210404853000,2.53285302734375,-0.013133215717971325,0.6305471062660217,0.5653391480445862
1742766210407236900,2.53523681640625,-0.09361234307289124,0.50196373462677,0.6517740488052368
1742766210409647400,2.5376474609375,-0.1769929975271225,0.4268295168876648,0.7371399402618408
1742766210412044800,2.540044921875,-0.23929941654205322,0.4558447599411011,0.7815790772438049
1742766210414442000,2.54244189453125,-0.27976804971694946,0.5060869455337524,0.818840742111206
1742766210416839200,2.544839111328125,-0.31626617908477783,0.5166240930557251,0.867861270904541
1742766210419236400,2.547236328125,-0.3568875193595886,0.4297310411930084,0.9449806809425354
1742766210421620200,2.5496201171875,-0.4115583300590515,0.28007346391677856,1.0466867685317993
1742766210424030700,2.55203076171875,-0.4718795120716095,0.21303297579288483,1.1047172546386719
1742766210426428000,2.554427978515625,-0.5326588153839111,0.1835595965385437,1.1117420196533203
1742766210428825000,2.5568251953125,-0.5943543910980225,0.11438114941120148,1.10532808303833
1742766210431222500,2.559222412109375,-0.649483323097229,-0.007177455350756645,1.1201411485671997
1742766210433619700,2.56161962890625,-0.6824691295623779,-0.15866757929325104,1.1645803451538086
1742766210436003600,2.564003662109375,-0.6927008032798767,-0.24479703605175018,1.1783243417739868
1742766210438414000,2.5664140625,-0.6862868666648865,-0.30343836545944214,1.1899304389953613
1742766210440811300,2.568811279296875,-0.6743753552436829,-0.40071579813957214,1.22627592086792
1742766210443195100,2.571195068359375,-0.6563553810119629,-0.517998456954956,1.2864443063735962
1742766210445605600,2.573605712890625,-0.5989357233047485,-0.7015580534934998,1.2578872442245483
1742766210448003000,2.576003173828125,-0.5128062963485718,-0.568393349647522,1.042563557624817
1742766210450386700,2.57838671875,-0.43477052450180054,0.4359922409057617,0.978424608707428
1742766210452797400,2.58079736328125,-0.4969242513179779,0.5086830258369446,0.8058602213859558
1742766210455194600,2.583194580078125,-0.5772506594657898,-0.20402298867702484,0.45920443534851074
1742766210457578500,2.58557861328125,-0.5894675850868225,-0.6473453640937805,0.21776704490184784
1742766210459989000,2.587989013671875,-0.5839699506759644,-0.6413896083831787,0.07696675509214401
1742766210462386200,2.59038623046875,-0.5781669020652771,-0.43919917941093445,0.03527642786502838
1742766210464770000,2.59277001953125,-0.5723638534545898,-0.22616620361804962,0.041384901851415634
1742766210467180500,2.5951806640625,-0.5428904891014099,0.10430216789245605,0.07085828483104706
1742766210469577700,2.59757763671875,-0.4775298535823822,0.35169529914855957,0.06765133142471313
1742766210471961600,2.599961669921875,-0.37979426980018616,0.4703523814678192,0.006261184345930815
1742766210474372400,2.602372314453125,-0.2673983871936798,0.575570821762085,-0.07314895838499069
1742766210476769500,2.60476953125,-0.17454960942268372,0.6954495906829834,-0.13927318155765533
1742766210479153400,2.6071533203125,-0.12934690713882446,0.6603258848190308,-0.19913621246814728
1742766210481564000,2.60956396484375,-0.13530266284942627,0.16859383881092072,-0.09956810623407364
1742766210483961000,2.611961181640625,-0.11606097966432571,-0.21150586009025574,0.125987246632576
1742766210486345000,2.614344970703125,-0.0910162404179573,-0.2786990702152252,0.16248537600040436
1742766210488755700,2.616755615234375,-0.08704573661088943,-0.31473904848098755,0.16462333500385284
1742766210491153000,2.61915283203125,-0.08460234850645065,-0.3136700689792633,0.17424418032169342
1742766210493536800,2.621536865234375,-0.08215895295143127,-0.3136700689792633,0.17897824943065643
1742766210495947300,2.623947265625,-0.07895200699567795,-0.2560977041721344,0.15301723778247833
1742766210498344400,2.626344482421875,-0.0787992998957634,-0.11636640131473541,0.13117945194244385
1742766210500728300,2.628728271484375,-0.0847550556063652,0.008399149402976036,0.10460758954286575
1742766210503138800,2.631138916015625,-0.10369132459163666,0.07452336698770523,0.045355409383773804
1742766210505536000,2.633535888671875,-0.1256818175315857,0.22906772792339325,0.007024743594229221
1742766210507933200,2.63593310546875,-0.1626380831003189,0.4443913698196411,-0.022754060104489326
1742766210510330600,2.63833056640625,-0.217308908700943,0.5612159371376038,-0.07085828483104706
1742766210512727800,2.640727783203125,-0.2736595869064331,0.564728319644928,-0.13514995574951172
1742766210515111700,2.643111572265625,-0.31351736187934875,0.4700469672679901,-0.20371755957603455
1742766210517522200,2.645522216796875,-0.3115321099758148,0.21318569779396057,-0.18630841374397278
1742766210519919400,2.64791943359375,-0.2564031481742859,-0.08139539510011673,-0.001985253533348441
1742766210522303200,2.65030322265625,-0.21150586009025574,-0.15393351018428802,0.12629267573356628
1742766210524713700,2.652713623046875,-0.21654535830020905,-0.11453386396169662,0.1779092699289322
1742766210527111000,2.65511083984375,-0.24647687375545502,-0.1760767251253128,0.20616094768047333
1742766210529508400,2.65750830078125,-0.2790044844150543,-0.22647161781787872,0.23212195932865143
1742766210531905500,2.659905517578125,-0.2942756712436676,-0.12339114397764206,0.2673983871936798
1742766210534302700,2.662302734375,-0.31290650367736816,-0.05528167635202408,0.2976353168487549
1742766210536700000,2.664699951171875,-0.33291175961494446,-0.14782503247261047,0.3148917555809021
1742766210539097000,2.66709716796875,-0.3405473530292511,-0.2602209448814392,0.3321481943130493
1742766210541494300,2.669494384765625,-0.3306210935115814,-0.2790044844150543,0.3642176687717438
1742766210543891500,2.671891357421875,-0.31473904848098755,-0.25411245226860046,0.3965925872325897
1742766210546288600,2.67428857421875,-0.2976353168487549,-0.26281702518463135,0.42514967918395996
1742766210548686000,2.67668603515625,-0.28129515051841736,-0.3026748299598694,0.46073153614997864
1742766210551083300,2.679083251953125,-0.2585411071777344,-0.40361732244491577,0.4934118688106537
1742766210553480400,2.68148046875,-0.2295258641242981,-0.5244123935699463,0.5273138880729675
1742766210555877600,2.683877685546875,-0.19241689145565033,-0.5677825212478638,0.5676298141479492
1742766210558274800,2.68627490234375,-0.15301723778247833,-0.6013791561126709,0.6126797795295715
1742766210560672000,2.688672119140625,-0.11926792562007904,-0.6908682584762573,0.6526902914047241
1742766210563069200,2.691069091796875,-0.08307522535324097,-0.8029587268829346,0.691326379776001
1742766210565466400,2.69346630859375,-0.04474456235766411,-0.8501466512680054,0.7363763451576233
1742766210567863600,2.695863525390625,-0.01435491070151329,-0.8139539957046509,0.789061963558197
1742766210570261000,2.698260986328125,0.0032069480512291193,-0.8551861643791199,0.8269344568252563
1742766210572644900,2.700644775390625,0.011147962883114815,-0.9472714066505432,0.8406785130500793
1742766210575055400,2.703055419921875,0.021990500390529633,-0.9086353182792664,0.8541171550750732
1742766210577452500,2.70545263671875,0.028404397889971733,-0.7740961909294128,0.8667922616004944
1742766210579836400,2.70783642578125,0.022906772792339325,-0.70308518409729,0.846939742565155
1742766210582247000,2.710246826171875,0.011300674639642239,-0.6442911624908447,0.8055548071861267
1742766210584644000,2.71264404296875,-0.002748812548816204,-0.5644228458404541,0.7571451663970947
1742766210587028000,2.715028076171875,-0.022601349279284477,-0.5567872524261475,0.6891884207725525
1742766210589438700,2.717438720703125,-0.03390202298760414,-0.5340332388877869,0.6285618543624878
1742766210591836000,2.7198359375,-0.03955236077308655,-0.4503471553325653,0.5861079692840576
1742766210594233000,2.722233154296875,-0.04718795046210289,-0.4265241026878357,0.5421269536018372
1742766210596630300,2.72463037109375,-0.05726693198084831,-0.41384902596473694,0.49799323081970215
1742766210599027500,2.72702734375,-0.07009471952915192,-0.3426853120326996,0.4543176591396332
1742766210601424600,2.729424560546875,-0.08261708915233612,-0.3248180150985718,0.3686463236808777
1742766210603821800,2.73182177734375,-0.09040539711713791,-0.30939415097236633,0.2910687327384949
1742766210606219300,2.73421923828125,-0.091932512819767,-0.2829749882221222,0.2507528066635132
1742766210608616400,2.736616455078125,-0.10308047384023666,-0.25563958287239075,0.23303823173046112
1742766210611013600,2.739013671875,-0.11942064017057419,-0.20341213047504425,0.21898874640464783
1742766210613410800,2.741410888671875,-0.1441599577665329,-0.15988926589488983,0.1882936656475067
1742766210615794700,2.743794677734375,-0.16630317270755768,-0.1560714691877365,0.1322484314441681
1742766210618205200,2.746205078125,-0.1754658818244934,-0.09590301662683487,0.08246438205242157
1742766210620602400,2.748602294921875,-0.17302247881889343,0.043828289955854416,0.03924693539738655
1742766210622999600,2.75099951171875,-0.16798299551010132,0.17271706461906433,-0.025502873584628105
1742766210625396700,2.753396728515625,-0.168899267911911,0.2530434727668762,-0.10735640674829483
1742766210627794000,2.7557939453125,-0.18019993603229523,0.2533488869667053,-0.19333316385746002
1742766210630191400,2.75819140625,-0.1850867122411728,0.23884128034114838,-0.254265159368515
1742766210632588500,2.760588623046875,-0.18798823654651642,0.2987042963504791,-0.27289602160453796
1742766210634985700,2.76298583984375,-0.19119518995285034,0.3996468186378479,-0.2782409191131592
1742766210637383000,2.7653828125,-0.19883078336715698,0.4220954477787018,-0.3020639717578888
1742766210639780000,2.767780029296875,-0.2047865390777588,0.39598172903060913,-0.3176405727863312
1742766210642177300,2.77017724609375,-0.2020377367734909,0.3611634373664856,-0.31199023127555847
1742766210644574500,2.772574462890625,-0.19211146235466003,0.3324536085128784,-0.2990097403526306
1742766210646972000,2.774971923828125,-0.18142163753509521,0.39735615253448486,-0.284196674823761
1742766210649369000,2.777369140625,-0.1782146841287613,0.4572191834449768,-0.28633466362953186
1742766210651766300,2.779766357421875,-0.1889045089483261,0.4011739492416382,-0.3104631304740906
1742766210654163500,2.78216357421875,-0.19974705576896667,0.3736858069896698,-0.3214583694934845
1742766210656560600,2.784560546875,-0.20631365478038788,0.448361873626709,-0.31855684518814087
1742766210658957800,2.786957763671875,-0.21898874640464783,0.4931064546108246,-0.33260634541511536
1742766210661355000,2.78935498046875,-0.23349636793136597,0.47951510548591614,-0.36253786087036133
1742766210663752400,2.79175244140625,-0.2408265322446823,0.4558447599411011,-0.3781144618988037
1742766210666149600,2.794149658203125,-0.24067382514476776,0.4471401870250702,-0.3781144618988037
1742766210668546800,2.796546875,-0.2373141646385193,0.48073679208755493,-0.37078428268432617
1742766210670944000,2.798944091796875,-0.23242738842964172,0.488219678401947,-0.37796175479888916
1742766210673341200,2.801341064453125,-0.22738789021968842,0.45615020394325256,-0.3996468186378479
1742766210675738400,2.80373828125,-0.21410197019577026,0.465007483959198,-0.40544986724853516
1742766210678135600,2.806135498046875,-0.19821994006633759,0.4688252806663513,-0.4031592011451721
1742766210680532700,2.80853271484375,-0.18340688943862915,0.43049460649490356,-0.40331190824508667
1742766210682930000,2.810929931640625,-0.17256435751914978,0.45676103234291077,-0.4091149568557739
1742766210685327000,2.8133271484375,-0.1682884246110916,0.5354076027870178,-0.42423340678215027
1742766210687724500,2.815724609375,-0.17561858892440796,0.5169295072555542,-0.45645561814308167
1742766210690121700,2.818121826171875,-0.18157434463500977,0.4734066128730774,-0.49020493030548096
1742766210692519000,2.820518798828125,-0.17470231652259827,0.540905237197876,-0.5065450668334961
1742766210694916000,2.822916015625,-0.16813570261001587,0.6282563805580139,-0.5215108394622803
1742766210697313300,2.825313232421875,-0.17332790791988373,0.6632274389266968,-0.5499152541160583
1742766210699710500,2.82771044921875,-0.18691925704479218,0.6708629727363586,-0.5951179265975952
1742766210702107600,2.830107666015625,-0.19470755755901337,0.719730794429779,-0.6508577466011047
1742766210704505000,2.832505126953125,-0.19806721806526184,0.818535327911377,-0.7052231431007385
1742766210706902300,2.83490234375,-0.20631365478038788,0.9159654378890991,-0.7510367035865784
1742766210709299500,2.837299560546875,-0.22479179501533508,0.911078691482544,-0.8107470273971558
1742766210711696600,2.839696533203125,-0.24815669655799866,0.9049702286720276,-0.8739697337150574
1742766210714093800,2.84209375,-0.2545706033706665,0.9439117312431335,-0.9286405444145203
1742766210716477700,2.844477783203125,-0.2495311051607132,0.8895463347434998,-0.9802571535110474
1742766210718888200,2.84688818359375,-0.17286977171897888,-0.03787253051996231,-0.8072346448898315
1742766210721285400,2.849285400390625,0.05619794875383377,-0.7296570539474487,-0.17210622131824493
1742766210723669200,2.851669189453125,0.23502348363399506,-0.05604523420333862,0.03833066672086716
1742766210726080000,2.854080078125,0.29656633734703064,0.08002099394798279,0.10949437320232391
1742766210728477200,2.856477294921875,0.27595025300979614,-0.3148917555809021,0.03787253051996231
1742766210730861000,2.858861083984375,0.23899398744106293,-0.2948864996433258,-0.025197450071573257
1742766210733271600,2.861271484375,0.18844637274742126,0.08628217875957489,-0.10384403169155121
1742766210735668700,2.863668701171875,0.111632339656353,0.21562908589839935,-0.19363857805728912
1742766210738052600,2.866052490234375,0.03237490355968475,-0.11942064017057419,-0.16706672310829163
1742766210740463000,2.868463134765625,-0.015423892997205257,-0.2411319613456726,-0.11178504675626755
1742766210742860300,2.8708603515625,-0.04749337583780289,-0.17684027552604675,-0.10063708573579788
1742766210745244200,2.873244140625,-0.06459710001945496,-0.17943638563156128,-0.11972606182098389
1742766210747655000,2.875655029296875,-0.05925218388438225,-0.23288552463054657,-0.111632339656353
1742766210750052000,2.878052001953125,-0.03436015918850899,-0.2742704153060913,-0.03680354729294777
1742766210752436000,2.88043603515625,-0.027029991149902344,-0.27442312240600586,-0.008093725889921188
1742766210754846500,2.882846435546875,-0.039857782423496246,-0.3590254783630371,-0.04443913698196411
1742766210757243600,2.88524365234375,-0.05803048983216286,-0.4172086715698242,-0.1247655525803566
1742766210759627500,2.88762744140625,-0.07681404054164886,-0.39201122522354126,-0.20936790108680725
1742766210762038000,2.8900380859375,-0.08399149775505066,-0.42927291989326477,-0.2476985603570938
1742766210764435500,2.892435546875,-0.07238540053367615,-0.6650599241256714,-0.1882936656475067
1742766210766832600,2.89483251953125,-0.0528382882475853,-0.8134958148002625,-0.13316470384597778
1742766210769229800,2.897229736328125,-0.046577103435993195,-0.8383878469467163,-0.12018419802188873
1742766210771627000,2.899626953125,-0.050394900143146515,-0.977813720703125,-0.13774605095386505
1742766210774011000,2.902010986328125,-0.06184828653931618,-1.266897201538086,-0.15866757929325104
1742766210776421400,2.90442138671875,-0.06978929787874222,-1.5361281633377075,-0.1710372269153595
1742766210778818600,2.906818603515625,-0.08322793990373611,-1.7303775548934937,-0.21288026869297028
1742766210781215700,2.9092158203125,-0.08826743066310883,-2.0443530082702637,-0.22677704691886902
1742766210783613000,2.911613037109375,-0.08612946420907974,-2.345806121826172,-0.23334364593029022
1742766210786010400,2.91401025390625,-0.09345962852239609,-2.5463168621063232,-0.275186687707901
1742766210788407600,2.916407470703125,-0.11331216990947723,-2.6860480308532715,-0.3046600818634033
1742766210790804700,2.9188046875,-0.15026842057704926,-2.8097445964813232,-0.30664533376693726
1742766210793202000,2.921201904296875,-0.19684553146362305,-2.912977933883667,-0.24754585325717926
1742766210795585800,2.923585693359375,-0.2605263590812683,-2.8454792499542236,-0.1957765519618988
1742766210797996300,2.925996337890625,-0.3474193811416626,-2.62099289894104,-0.1513374149799347
1742766210800393500,2.9283935546875,-0.46164780855178833,-2.314805746078491,-0.09926267713308334
1742766210802777300,2.93077734375,-0.5682406425476074,-1.9967069625854492,0.030389651656150818
1742766210805188000,2.93318798828125,-0.6374191045761108,-1.6137057542800903,0.22021043300628662
1742766210807585300,2.935585205078125,-0.6557445526123047,-1.0144646167755127,0.39445462822914124
1742766210809969200,2.93796923828125,-0.6108472347259521,-0.26663482189178467,0.46241137385368347
1742766210812379600,2.940379638671875,-0.511431872844696,0.4688252806663513,0.4083513915538788
1742766210814776800,2.94277685546875,-0.37597647309303284,0.9579612016677856,0.34818294644355774
1742766210817160700,2.94516064453125,-0.2345653474330902,1.103342890739441,0.2845021188259125
1742766210819571200,2.9475712890625,-0.10995250940322876,0.858393132686615,0.2160872220993042
1742766210821968600,2.94996875,-0.025961007922887802,0.46668729186058044,0.05008947476744652
1742766210824352300,2.952352294921875,0.04459185153245926,0.06994201242923737,-0.1301104724407196
1742766210826763000,2.954762939453125,0.12232216447591782,-0.29595550894737244,-0.25777754187583923
1742766210829160200,2.95716015625,0.20463383197784424,-0.5836645364761353,-0.3252761662006378
1742766210831557400,2.959557373046875,0.2777827978134155,-0.7498149871826172,-0.33230090141296387
1742766210833954600,2.96195458984375,0.32787227630615234,-0.7382088899612427,-0.3035911023616791
1742766210836351700,2.964351806640625,0.33535513281822205,-0.5812211632728577,-0.2764083743095398
1742766210838735600,2.966735595703125,0.29503923654556274,-0.39735615253448486,-0.2596100866794586
1742766210841146000,2.96914599609375,0.22463907301425934,-0.2576248347759247,-0.22662433981895447
1742766210843543600,2.97154345703125,0.1435490995645523,-0.16401249170303345,-0.1913478970527649
1742766210845927400,2.973927490234375,0.07238540053367615,-0.09513945877552032,-0.17531315982341766
1742766210848338000,2.976337890625,0.01969982497394085,-0.0584886260330677,-0.16309621930122375
1742766210850735000,2.978735107421875,-0.019088976085186005,-0.07421794533729553,-0.1238492801785469
1742766210853119000,2.981118896484375,-0.04428642615675926,-0.10582929104566574,-0.07742489129304886
1742766210855529500,2.983529541015625,-0.06963659077882767,-0.12003148347139359,-0.047798797488212585
1742766210857926700,2.9859267578125,-0.10262233763933182,-0.10811996459960938,-0.04046862944960594
1742766210860323800,2.98832373046875,-0.14309096336364746,-0.08093725889921188,-0.0594048947095871
1742766210862721300,2.99072119140625,-0.17989452183246613,-0.06765133142471313,-0.06398624926805496
1742766210865118500,2.993118408203125,-0.2017323076725006,-0.06062658876180649,-0.024586603045463562
1742766210867515600,2.995515625,-0.22021043300628662,-0.022601349279284477,0.02214321307837963
1742766210869912800,2.997912841796875,-0.23884128034114838,0.04199574887752533,0.0261137206107378
1742766210872310000,3.00031005859375,-0.26373329758644104,0.09300149232149124,0.00030542362947016954
1742766210874707200,3.002707275390625,-0.28816720843315125,0.09895725548267365,-0.01038440316915512
1742766210877104400,3.0051044921875,-0.2951919436454773,0.06994201242923737,0.03833066672086716
1742766210879501800,3.007501708984375,-0.2973299026489258,0.062153708189725876,0.08353336155414581
1742766210881885400,3.009885498046875,-0.30374380946159363,0.0981936976313591,0.07666133344173431
1742766210884296200,3.012296142578125,-0.3211529552936554,0.12308572232723236,0.04581354558467865
1742766210886693400,3.014693359375,-0.33199548721313477,0.09681928902864456,0.04199574887752533
1742766210889090600,3.017090576171875,-0.3364241421222687,0.0393996499478817,0.04886778071522713
1742766210891487700,3.01948779296875,-0.3358132839202881,-0.019241688773036003,0.07482878863811493
1742766210893885000,3.021885009765625,-0.33443886041641235,-0.028098974376916885,0.09743013978004456
1742766210896282000,3.0242822265625,-0.342074453830719,0.005344913341104984,0.10231691598892212
1742766210898679300,3.02667919921875,-0.3471139669418335,0.041384901851415634,0.12522368133068085
1742766210901076500,3.029076416015625,-0.3423798978328705,0.07605048269033432,0.16721943020820618
1742766210903460400,3.03146044921875,-0.33291175961494446,0.13453911244869232,0.18783552944660187
1742766210905871000,3.03387109375,-0.3177932798862457,0.22723518311977386,0.15149012207984924
1742766210908268300,3.036268310546875,-0.29656633734703064,0.2951919436454773,0.08857285231351852
1742766210910652200,3.038652099609375,-0.25655585527420044,0.29717719554901123,0.026571854948997498
1742766210913062700,3.041062744140625,-0.20493926107883453,0.22586077451705933,-0.018019994720816612
1742766210915459800,3.0434599609375,-0.13713520765304565,0.10338589549064636,-0.04871506989002228
1742766210917843700,3.04584375,-0.0716218426823616,-0.03374931216239929,-0.10094250738620758
