time,seconds_elapsed,z,y,x
1742766409873453800,0.064453857421875,10.03848934173584,-0.06640082597732544,-0.05742774158716202
1742766409875851000,0.06685107421875,10.209575653076172,-0.38225340843200684,-0.14476576447486877
1742766409878248200,0.069248291015625,8.868398666381836,-0.03469592705368996,-0.43489551544189453
1742766409880645400,0.071645263671875,7.315456867218018,0.4414757788181305,-0.14356936514377594
1742766409883042800,0.074042724609375,8.337790489196777,1.1168500185012817,0.024526432156562805
1742766409885440000,0.07643994140625,10.85444164276123,0.6598208546638489,-0.0029910283628851175
1742766409887837200,0.078837158203125,11.612966537475586,0.11126625537872314,0.13998012244701385
1742766409890234400,0.081234375,10.50808048248291,0.31345975399017334,0.03409772366285324
1742766409892631800,0.0836318359375,8.623732566833496,0.43130627274513245,-0.05144568532705307
1742766409895029000,0.086029052734375,7.345367431640625,-0.062213387340307236,-0.08434699475765228
1742766409897426200,0.08842626953125,7.413562774658203,0.2667997181415558,-0.21595224738121033
1742766409899823400,0.0908232421875,8.274380683898926,0.35832518339157104,-0.4456632137298584
1742766409902220800,0.093220703125,9.56650447845459,0.13220344483852386,-1.00259268283844
1742766409904618000,0.095617919921875,10.60558795928955,0.15613168478012085,-0.6717849373817444
1742766409907015200,0.09801513671875,9.970293998718262,0.06041877344250679,0.11006984114646912
1742766409909412400,0.100412353515625,9.213563919067383,0.4019941985607147,0.37088751792907715
1742766409911809800,0.102809814453125,10.075577735900879,0.8763712644577026,0.576670229434967
1742766409914207000,0.10520703125,11.289935111999512,0.7112665176391602,0.13938191533088684
1742766409916604200,0.107604248046875,11.429915428161621,0.19680966436862946,-0.268594354391098
1742766409919001600,0.110001708984375,10.845468521118164,0.17228323221206665,-0.5144568681716919
1742766409921398800,0.112398681640625,9.985847473144531,-0.07058826833963394,-0.33798620104789734
1742766409923796000,0.1147958984375,10.106684684753418,0.6299105882644653,-0.4247260093688965
1742766409926193200,0.117193115234375,10.700104713439941,0.32961133122444153,-0.018544375896453857
1742766409928590600,0.119590576171875,12.0604248046875,-0.4205385744571686,0.05563312768936157
1742766409930987800,0.12198779296875,12.355340003967285,-0.6831508874893188,-0.1178465187549591
1742766409933385000,0.124385009765625,10.579267501831055,-0.022133609279990196,-0.14356936514377594
1742766409935782100,0.1267822265625,7.798209190368652,0.13698910176753998,0.010767702013254166
1742766409938179600,0.1291796875,7.938787460327148,0.8225327730178833,0.15672987699508667
1742766409940576800,0.13157666015625,10.65224838256836,0.6861419081687927,0.05024927482008934
1742766409942974000,0.133973876953125,11.799606323242188,0.5437689423561096,-0.4815555512905121
1742766409945371400,0.136371337890625,10.491929054260254,0.877567708492279,-0.638883650302887
1742766409947768600,0.1387685546875,8.02791976928711,1.0001999139785767,-0.1136590763926506
1742766409950165800,0.141165771484375,6.116054534912109,0.5599204897880554,0.14057832956314087
1742766409952563000,0.14356298828125,6.939784049987793,0.5682953596115112,-0.5802595019340515
1742766409954960400,0.14596044921875,9.231510162353516,0.5006981492042542,-0.36610186100006104
1742766409957357600,0.148357666015625,11.159526824951172,0.372682124376297,-0.02871387079358101
1742766409959754800,0.150754638671875,10.73838996887207,0.30508488416671753,-0.7334001660346985
1742766409962152000,0.15315185546875,8.371888160705566,0.17527425289154053,-0.7046862840652466
1742766409964549400,0.15554931640625,7.543971538543701,0.97148597240448,-0.18424734473228455
1742766409966946600,0.157946533203125,9.244071960449219,1.4608181715011597,-0.30927231907844543
1742766409969343700,0.16034375,10.899307250976562,0.5186443328857422,-0.3128615617752075
1742766409971741000,0.162740966796875,11.419147491455078,0.267397940158844,-0.19680966436862946
1742766409974138400,0.165138427734375,10.693524360656738,0.49591249227523804,0.005982056725770235
1742766409976535600,0.16753564453125,9.197412490844727,-0.27756741642951965,0.519242525100708
1742766409978932700,0.1699326171875,9.709476470947266,-0.17288143932819366,0.633499801158905
1742766409981330000,0.172329833984375,10.921441078186035,-0.15254244208335876,0.04486542567610741
1742766409983727400,0.174727294921875,9.964311599731445,-0.698704183101654,-0.1698904037475586
1742766409986124500,0.17712451171875,8.678169250488281,-0.529412031173706,-0.6753742098808289
1742766409988521700,0.179521728515625,8.58185863494873,0.2967100143432617,-0.8374879360198975
1742766409990919000,0.1819189453125,9.347561836242676,0.7956135272979736,-0.017946170642971992
1742766409993316400,0.18431640625,10.886744499206543,1.1868400573730469,0.07118647545576096
1742766409995700200,0.1867001953125,11.944971084594727,0.8566305041313171,-0.018544375896453857
1742766409998110700,0.18911083984375,11.260025024414062,0.4019941985607147,0.13280165195465088
1742766410000508200,0.191508056640625,10.06002426147461,0.5306084156036377,-0.6825526356697083
1742766410002892000,0.19389208984375,8.698508262634277,0.5706881880760193,-1.0887342691421509
1742766410005302500,0.196302490234375,7.881359577178955,0.3762713670730591,-0.1782652884721756
1742766410007699700,0.19869970703125,9.42353343963623,0.4181457459926605,-0.47198426723480225
1742766410010083600,0.20108349609375,11.380264282226562,0.267397940158844,-1.2484551668167114
1742766410012494300,0.203494384765625,11.00997543334961,0.45583271980285645,-0.8470591902732849
1742766410014891500,0.2058916015625,8.870193481445312,0.6813562512397766,-0.07896314561367035
1742766410017275400,0.208275390625,7.92861795425415,0.46061834692955017,0.18364913761615753
1742766410019686100,0.21068603515625,9.291330337524414,0.745364248752594,0.36729827523231506
1742766410022083300,0.213083251953125,11.353344917297363,1.0193424224853516,0.34995031356811523
1742766410024467200,0.21546728515625,11.241480827331543,0.3080759048461914,-0.20518454909324646
1742766410026877700,0.217877685546875,9.043074607849121,-0.22193430364131927,-0.5455635786056519
1742766410029275100,0.220275146484375,7.9591264724731445,0.29371899366378784,-0.6269195079803467
1742766410031672300,0.22267236328125,8.878568649291992,0.39122650027275085,-0.06161518394947052
1742766410034069500,0.225069580078125,10.284950256347656,0.18963119387626648,0.5054838061332703
1742766410036466700,0.227466796875,11.286944389343262,-0.2883351147174835,0.47198426723480225
1742766410038864100,0.229864013671875,10.613365173339844,-0.4468596279621124,0.38225340843200684
1742766410041261300,0.23226123046875,9.09990406036377,-0.13579268753528595,0.363709032535553
1742766410043658500,0.234658447265625,8.690134048461914,0.07597211748361588,-0.10588239878416061
1742766410046055700,0.2370556640625,8.594420433044434,0.10588239878416061,0.3086741268634796
1742766410048453000,0.239453125,9.595218658447266,0.5665007829666138,-0.17168502509593964
1742766410050850300,0.241850341796875,10.437492370605469,1.0336993932724,-0.6813562512397766
1742766410053247500,0.24424755859375,10.238289833068848,0.8961120843887329,-0.1908276081085205
1742766410055645000,0.24664501953125,10.057631492614746,0.7537391185760498,-0.6197410821914673
1742766410058042000,0.2490419921875,10.039685249328613,0.22193430364131927,-0.7082754969596863
1742766410060439300,0.251439208984375,10.048060417175293,-0.07537391036748886,-0.11425728350877762
1742766410062836500,0.25383642578125,10.831709861755371,0.12203395366668701,-0.005383851006627083
1742766410065234000,0.25623388671875,11.842079162597656,-0.20099709928035736,-0.5904290080070496
1742766410067631000,0.258631103515625,11.062019348144531,-0.3314059376716614,-0.9320043921470642
1742766410070028300,0.2610283203125,9.389435768127441,0.05922235921025276,-0.973878800868988
1742766410072425500,0.263425537109375,8.634500503540039,-0.09810572862625122,-0.534795880317688
1742766410074823000,0.265822998046875,9.242277145385742,0.8321040868759155,0.10648060590028763
1742766410077220000,0.26822021484375,10.546365737915039,1.1647064685821533,-0.047258246690034866
1742766410079617300,0.2706171875,11.283953666687012,0.7746763229370117,-0.1986042857170105
1742766410082014700,0.2730146484375,10.819746017456055,0.3601198196411133,-0.13280165195465088
1742766410084412000,0.275411865234375,9.026325225830078,-0.0011964113218709826,-0.054436713457107544
1742766410086809000,0.27780908203125,8.21994400024414,0.1495514214038849,0.36670008301734924
1742766410089206300,0.280206298828125,8.884550094604492,0.29850462079048157,0.4091726839542389
1742766410091603500,0.282603515625,8.781659126281738,0.03888336941599846,-0.039481572806835175
1742766410094001000,0.2850009765625,7.3304123878479,-0.4492524564266205,-0.5383850932121277
1742766410096384800,0.287384765625,7.174280643463135,0.1902294009923935,-0.6352944374084473
1742766410098795300,0.289795166015625,7.839485168457031,0.7357929348945618,0.17108681797981262
1742766410101192400,0.2921923828125,8.812167167663574,0.7357929348945618,0.3924229145050049
1742766410103590000,0.29458984375,10.020543098449707,0.6460621356964111,-0.048454657196998596
1742766410105987000,0.296987060546875,11.10329532623291,0.6496513485908508,-0.3080759048461914
1742766410108384300,0.29938427734375,11.215758323669434,0.47258245944976807,-0.8949156403541565
1742766410110781700,0.30178173828125,10.706087112426758,0.592223584651947,-1.1024930477142334
1742766410113179000,0.304178955078125,9.971489906311035,0.3439682424068451,-0.6215356588363647
1742766410115576000,0.306576171875,9.522237777709961,0.19561325013637543,-0.397208571434021
1742766410117973200,0.30897314453125,10.098908424377441,0.08793623000383377,-0.4749752879142761
1742766410120370700,0.31137060546875,9.776474952697754,0.24047867953777313,-0.3403790295124054
1742766410122768000,0.313767822265625,9.294919967651367,0.35533416271209717,-0.6107679605484009
1742766410125165000,0.3161650390625,8.508278846740723,0.5072783827781677,-0.3409772217273712
1742766410127562200,0.318562255859375,8.408378601074219,0.4295116662979126,0.8015955686569214
1742766410129959700,0.320959716796875,9.314062118530273,0.844068169593811,0.6825526356697083
1742766410132356900,0.32335693359375,10.183853149414062,0.615553617477417,-0.2153540402650833
1742766410134754000,0.325754150390625,10.1814603805542,-0.019740786403417587,-0.5138586759567261
1742766410137151500,0.3281513671875,10.677970886230469,0.15194423496723175,-0.5377869009971619
1742766410139535400,0.330535400390625,11.312666893005371,0.37028929591178894,-0.14356936514377594
1742766410141945900,0.33294580078125,10.677970886230469,0.20997019112110138,0.1950150430202484
1742766410144343000,0.335343017578125,10.713863372802734,0.41156548261642456,-0.17527425289154053
1742766410146740500,0.337740478515625,11.260025024414062,0.38344982266426086,-0.04785645380616188
1742766410149137700,0.3401376953125,11.018349647521973,-0.2225325107574463,0.07776673883199692
1742766410151534800,0.342534912109375,9.936196327209473,0.0568295381963253,-0.29431718587875366
1742766410153918700,0.344918701171875,8.496912956237793,0.21236300468444824,-0.2709871530532837
1742766410156329500,0.34732958984375,8.384450912475586,0.4127618968486786,0.2584248483181
1742766410158726700,0.3497265625,9.719047546386719,0.6059823632240295,-0.19561325013637543
1742766410161123800,0.352123779296875,10.41775131225586,0.6765705943107605,-0.4588237404823303
1742766410163521000,0.35452099609375,10.0612211227417,0.8434699773788452,-0.48514479398727417
1742766410165918500,0.35691845703125,9.180662155151367,0.7202396392822266,-0.47916272282600403
1742766410168302300,0.35930224609375,8.400602340698242,-0.1788634955883026,-0.14416755735874176
1742766410170712800,0.361712890625,8.665008544921875,-0.19142581522464752,0.18843477964401245
1742766410173110000,0.364110107421875,9.22433090209961,0.2913261651992798,-0.22492532432079315
1742766410175507500,0.366507568359375,9.255437850952148,0.0891326442360878,-0.5395814776420593
1742766410177904600,0.368904541015625,9.223732948303223,-0.06819544732570648,-0.5120640397071838
1742766410180301800,0.3713017578125,8.758329391479492,-0.01734796352684498,-0.2919243574142456
1742766410182699000,0.373698974609375,8.784051895141602,0.251844584941864,0.07118647545576096
1742766410185096400,0.376096435546875,9.559326171875,0.7974081635475159,0.048454657196998596
1742766410187493600,0.37849365234375,11.538788795471191,0.7387840151786804,-0.08973085135221481
1742766410189877500,0.38087744140625,11.295917510986328,0.17347964644432068,-0.6969096064567566
1742766410192288300,0.383288330078125,10.767104148864746,0.3194418251514435,-0.6711867451667786
1742766410194685400,0.385685546875,11.459227561950684,0.5796613097190857,0.22851456701755524
1742766410197069300,0.3880693359375,11.95753288269043,-0.18723836541175842,0.6616154313087463
1742766410199479800,0.390479736328125,11.237293243408203,-0.5306084156036377,0.4091726839542389
1742766410201877200,0.392877197265625,10.145567893981934,-0.6185446381568909,0.33499518036842346
1742766410204274400,0.3952744140625,10.062417030334473,-0.45104706287384033,-0.03529413416981697
1742766410206671600,0.397671630859375,9.844670295715332,-0.2757728099822998,-0.47617170214653015
1742766410209068800,0.40006884765625,8.645268440246582,-0.16450655460357666,-0.534795880317688
1742766410211466200,0.40246630859375,9.071788787841797,0.22791635990142822,-0.2386840581893921
1742766410213863400,0.404863525390625,11.786446571350098,0.8524430394172668,-0.4366901218891144
1742766410216260600,0.407260498046875,12.583854675292969,0.6705885529518127,-0.4013960063457489
1742766410218658000,0.409657958984375,10.613365173339844,0.35413774847984314,-0.3128615617752075
1742766410221055200,0.41205517578125,9.215357780456543,0.6454638838768005,-0.7513462901115417
1742766410223452400,0.414452392578125,9.269196510314941,0.5198407173156738,-0.31405797600746155
1742766410225836300,0.416836181640625,8.730812072753906,0.7280163168907166,-0.16869398951530457
1742766410228246800,0.419246826171875,8.459226608276367,0.5862415432929993,-0.916451096534729
1742766410230644200,0.421644287109375,8.803792953491211,0.5485545992851257,-1.3076776266098022
1742766410233041400,0.42404150390625,9.110074043273926,0.6071787476539612,-0.8656035661697388
1742766410235438600,0.4264384765625,8.991629600524902,0.5180460810661316,-0.45164528489112854
1742766410237836000,0.4288359375,8.897710800170898,0.35832518339157104,-0.1381855010986328
1742766410240233200,0.431233154296875,9.40917682647705,0.8620143532752991,0.0729810893535614
1742766410242630400,0.43363037109375,10.105487823486328,0.7591229677200317,0.34695929288864136
1742766410245027600,0.436027587890625,11.44666576385498,0.4217349886894226,0.3326023519039154
1742766410247411500,0.438411376953125,12.107682228088379,0.04007977992296219,0.24825534224510193
1742766410249822200,0.440822265625,11.093724250793457,-0.13040883839130402,-0.2309073805809021
1742766410252219400,0.443219482421875,9.79801082611084,-0.38225340843200684,-0.10588239878416061
1742766410254616600,0.445616455078125,9.128618240356445,-0.13639089465141296,-0.3409772217273712
1742766410257014000,0.448013916015625,9.218947410583496,-0.11964113265275955,-0.6939185857772827
1742766410259411200,0.4504111328125,9.559326171875,-0.04307080805301666,-0.02273181453347206
1742766410261808400,0.452808349609375,10.676774978637695,0.2913261651992798,0.0526420995593071
1742766410264205800,0.455205810546875,10.76830005645752,0.2638086974620819,0.004785645287483931
1742766410266603000,0.45760302734375,9.606584548950195,0.41874396800994873,-0.1537388563156128
1742766410269000200,0.460000244140625,9.393025398254395,1.0354939699172974,-0.4259224236011505
1742766410271397400,0.4623974609375,10.547562599182129,1.0295119285583496,-0.4905286431312561
1742766410273794800,0.464794921875,10.42492961883545,0.44446679949760437,-0.755533754825592
1742766410276192000,0.46719189453125,9.17886734008789,0.47796630859375,-0.6478567123413086
1742766410278589200,0.469589111328125,8.239086151123047,0.5030909776687622,-0.07357929646968842
1742766410280986400,0.471986328125,8.285148620605469,0.6855437159538269,-0.24885354936122894
1742766410283383800,0.4743837890625,9.8207426071167,0.494716078042984,-0.649053156375885
1742766410285781000,0.476781005859375,10.471590042114258,0.15553347766399384,-0.828514814376831
1742766410288178200,0.47917822265625,10.371689796447754,0.5144568681716919,-0.6029912829399109
1742766410290575400,0.481575439453125,9.597013473510742,0.8045865893363953,-0.40378883481025696
1742766410292972800,0.483972900390625,8.62014389038086,0.7680960893630981,0.13100704550743103
1742766410295370000,0.486369873046875,9.43190860748291,0.9625129103660583,0.049651071429252625
1742766410297753900,0.48875390625,11.544771194458008,0.6119644045829773,-0.30927231907844543
1742766410300164400,0.491164306640625,12.131610870361328,0.028115665540099144,-0.20398813486099243
1742766410302561800,0.493561767578125,11.185847282409668,0.1579262912273407,0.25064817070961
1742766410304959000,0.495958984375,9.289535522460938,0.06999006122350693,0.4498506486415863
1742766410307356200,0.498356201171875,8.898907661437988,-0.1333998590707779,0.49710890650749207
1742766410309753300,0.50075341796875,9.719645500183105,-0.21415762603282928,0.26141586899757385
1742766410312150800,0.50315087890625,9.763314247131348,-0.30987054109573364,-0.4001995921134949
1742766410314548000,0.5055478515625,8.595617294311523,-0.4133601188659668,-0.26500511169433594
1742766410316945200,0.507945068359375,8.35573673248291,-0.03768695518374443,0.037088751792907715
1742766410319342600,0.510342529296875,10.326226234436035,0.3026920557022095,-0.13698910176753998
1742766410321739800,0.51273974609375,11.08475112915039,0.6610172390937805,0.28235307335853577
1742766410324137000,0.515136962890625,11.324631690979004,1.0157532691955566,0.12622138857841492
1742766410326534100,0.5175341796875,11.252846717834473,0.9924231767654419,-0.13519448041915894
1742766410328931600,0.519931640625,10.904092788696289,0.5006981492042542,-0.5174478888511658
1742766410331328800,0.522328857421875,9.367900848388672,0.24945175647735596,-1.0396814346313477
1742766410333712600,0.524712646484375,8.253443717956543,0.06520441919565201,-0.7950153350830078
1742766410336123100,0.527123046875,8.50169849395752,0.2225325107574463,-0.4139583110809326
1742766410338520600,0.5295205078125,10.540383338928223,0.4259224236011505,-0.5413761138916016
1742766410340904400,0.531904541015625,11.470593452453613,0.39122650027275085,-0.21954147517681122
1742766410343315000,0.53431494140625,10.996814727783203,0.380458801984787,0.06699903309345245
1742766410345712400,0.53671240234375,9.741779327392578,0.33738797903060913,0.1788634955883026
1742766410348096000,0.539095947265625,8.151748657226562,0.24825534224510193,0.3720839321613312
1742766410350506800,0.5415068359375,8.060821533203125,0.6065805554389954,-0.1537388563156128
1742766410352904000,0.543904052734375,10.189236640930176,0.5222335457801819,-0.6783652305603027
1742766410355287800,0.546287841796875,11.745169639587402,0.22911277413368225,-0.46899324655532837
1742766410357698600,0.548698486328125,11.169695854187012,0.3116651475429535,-0.15314064919948578
1742766410360095700,0.551095703125,9.164510726928711,0.0526420995593071,-0.08793623000383377
1742766410362479600,0.553479736328125,8.202595710754395,-0.003589233849197626,0.50907301902771
1742766410364890000,0.55589013671875,8.00518798828125,0.10229317098855972,0.7674978375434875
1742766410367287600,0.55828759765625,7.718647480010986,-0.031106693670153618,0.20997019112110138
1742766410369671400,0.56067138671875,6.716653347015381,0.04307080805301666,0.2841476798057556
1742766410372082000,0.56308203125,7.491329669952393,0.97148597240448,-0.26979073882102966
1742766410374479400,0.565479248046875,9.549755096435547,0.7758727669715881,-0.37028929591178894
1742766410376863200,0.56786328125,10.485946655273438,0.5772684812545776,-0.48813581466674805
1742766410379273700,0.570273681640625,10.149157524108887,0.6741777658462524,-0.5964110493659973
1742766410381671000,0.5726708984375,9.717252731323242,0.7585247755050659,-0.4139583110809326
1742766410384068400,0.575068359375,9.616754531860352,0.7657032608985901,-0.1663011759519577
1742766410386465500,0.577465576171875,9.135198593139648,0.9619147181510925,-0.46360939741134644
1742766410388862700,0.57986279296875,8.594420433044434,0.49710890650749207,-0.046061836183071136
1742766410391260000,0.582260009765625,9.504889488220215,0.4654040038585663,-0.23389841616153717
1742766410393657300,0.5846572265625,11.021939277648926,0.24646073579788208,-0.7052844762802124
1742766410396054500,0.587054443359375,9.982855796813965,-0.2392822653055191,-0.7483552694320679
1742766410398438400,0.5894384765625,7.672585964202881,-0.24047867953777313,-0.7908278703689575
1742766410400849200,0.59184912109375,7.165905475616455,0.48514479398727417,-0.747757077217102
1742766410403246300,0.594246337890625,8.703293800354004,1.0342975854873657,0.24167509377002716
1742766410405630200,0.596630126953125,11.653046607971191,1.1892328262329102,0.27397820353507996
1742766410408040700,0.599040771484375,12.064013481140137,0.9248259663581848,-0.028115665540099144
1742766410410438100,0.601438232421875,10.540383338928223,0.45104706287384033,0.08255238085985184
1742766410412835300,0.60383544921875,9.760323524475098,0.36191442608833313,0.1501496136188507
1742766410415232500,0.606232421875,9.486345291137695,-0.4426721930503845,-0.15314064919948578
1742766410417629700,0.608629638671875,8.930612564086914,-0.3924229145050049,0.053240302950143814
1742766410420027000,0.61102685546875,8.679964065551758,0.13280165195465088,-0.12921242415905
1742766410422424300,0.61342431640625,9.361918449401855,0.3966103494167328,-0.13878370821475983
1742766410424821500,0.615821533203125,8.94676399230957,0.2793620526790619,-0.31465616822242737
1742766410427218700,0.61821875,9.538389205932617,0.8333004713058472,-0.5509474277496338
1742766410429616000,0.6206162109375,9.874580383300781,0.8255237936973572,-0.11425728350877762
1742766410432013300,0.623013427734375,10.221540451049805,0.6819544434547424,-0.14416755735874176
1742766410434397200,0.625397216796875,11.025528907775879,0.7716853022575378,-0.2027917206287384
1742766410436807700,0.6278076171875,10.53200912475586,0.7250252366065979,-0.4821537733078003
1742766410439205000,0.630205078125,9.277571678161621,0.21415762603282928,-0.8255237936973572
1742766410441589000,0.632589111328125,8.394619941711426,0.2841476798057556,-0.6185446381568909
1742766410443999500,0.63499951171875,7.774878978729248,0.062213387340307236,-0.23210379481315613
1742766410446396700,0.637396728515625,8.12662410736084,0.3188436031341553,-0.4743770956993103
1742766410448794000,0.639794189453125,9.461220741271973,0.48394837975502014,-0.3242274820804596
1742766410451191300,0.64219140625,9.672985076904297,0.4582255482673645,-0.4103690981864929
1742766410453588500,0.64458837890625,9.833903312683105,0.2069791555404663,-0.05503492057323456
1742766410455986000,0.64698583984375,9.270393371582031,0.017946170642971992,-0.5647061467170715
1742766410458383000,0.649383056640625,8.534002304077148,-0.09571290761232376,-0.2679961323738098
1742766410460780300,0.6517802734375,8.735597610473633,0.28175488114356995,-0.2997010350227356
1742766410463177500,0.654177490234375,9.115457534790039,0.1908276081085205,-0.27756741642951965
1742766410465575000,0.656574951171875,9.608977317810059,0.22133609652519226,0.41156548261642456
1742766410467972000,0.65897216796875,10.928619384765625,0.4899304509162903,0.8057830333709717
1742766410470356000,0.66135595703125,11.086545944213867,-0.30628129839897156,0.7680960893630981
1742766410472766500,0.663766357421875,10.394421577453613,-0.6023930907249451,0.4486542344093323
1742766410475164000,0.666163818359375,9.57787036895752,-0.4001995921134949,0.12801600992679596
1742766410477561000,0.66856103515625,10.581061363220215,-0.18544375896453857,0.1788634955883026
1742766410479958300,0.670958251953125,12.138789176940918,-0.17288143932819366,0.06640082597732544
1742766410482355500,0.67335546875,12.483355522155762,0.2602194547653198,-0.2512463629245758
1742766410484753000,0.6757529296875,10.447063446044922,0.23748764395713806,-0.09930214285850525
1742766410487150000,0.678150146484375,9.005986213684082,0.5437689423561096,0.06281159073114395
1742766410489547300,0.68054736328125,9.955936431884766,0.4695914387702942,-0.1585244983434677
1742766410491944400,0.6829443359375,10.305289268493652,0.03888336941599846,-0.600000262260437
1742766410494342000,0.685341796875,9.869794845581055,-0.016749758273363113,-0.9278169870376587
1742766410496739000,0.687739013671875,10.02413272857666,0.29790642857551575,-0.7932206988334656
1742766410499136300,0.69013623046875,11.014760971069336,0.026919255033135414,-0.5395814776420593
1742766410501533400,0.692533447265625,10.685149192810059,-0.08673982322216034,-1.2675977945327759
1742766410503931000,0.694930908203125,9.561718940734863,0.5000999569892883,-1.4051851034164429
1742766410506314800,0.697314697265625,7.6666035652160645,0.7256234884262085,-0.1333998590707779
1742766410508725200,0.699725341796875,7.790432453155518,0.7926225066184998,0.02871387079358101
1742766410511122700,0.702122802734375,7.959724426269531,0.6717849373817444,-0.11485548317432404
1742766410513506600,0.704506591796875,8.087740898132324,0.8315058946609497,0.5186443328857422
1742766410515917000,0.7069169921875,9.452247619628906,0.8859425783157349,0.13938191533088684
1742766410518314200,0.709314208984375,10.159326553344727,0.22133609652519226,-0.37447673082351685
1742766410520711700,0.711711669921875,9.127422332763672,-0.4504488706588745,-0.3236292600631714
1742766410523108900,0.71410888671875,8.433503150939941,-0.10588239878416061,-0.44386860728263855
1742766410525506000,0.716506103515625,8.97667407989502,-0.22911277413368225,-0.18843477964401245
1742766410527903200,0.7189033203125,9.741181373596191,-0.046061836183071136,-0.0323031060397625
1742766410530300700,0.72130078125,9.8267240524292,0.43908295035362244,-0.03469592705368996
1742766410532697900,0.72369775390625,9.870393753051758,0.38644084334373474,0.19322042167186737
1742766410535095000,0.726094970703125,10.707283020019531,0.1579262912273407,0.18065811693668365
1742766410537492200,0.7284921875,12.096915245056152,0.1178465187549591,-0.16091732680797577
1742766410539889700,0.7308896484375,10.815558433532715,-0.1501496136188507,-0.6263213157653809
1742766410542273500,0.7332734375,8.12662410736084,0.2602194547653198,-1.1318050622940063
1742766410544684000,0.73568408203125,8.698508262634277,0.9936196208000183,-1.1718848943710327
1742766410547081200,0.738081298828125,10.13300609588623,0.8446664214134216,-0.542572557926178
1742766410549478700,0.740478759765625,10.926226615905762,0.666999340057373,-0.3690928816795349
1742766410551875800,0.742875732421875,10.965109825134277,0.6191428303718567,-0.22193430364131927
1742766410554273000,0.74527294921875,10.112068176269531,0.21774685382843018,0.2967100143432617
1742766410556670200,0.747670166015625,9.919445991516113,0.3122633695602417,-0.13100704550743103
1742766410559067600,0.750067626953125,10.084550857543945,0.494716078042984,-0.14476576447486877
1742766410561464800,0.75246484375,9.978070259094238,0.589830756187439,-0.30568310618400574
1742766410563862000,0.754862060546875,10.195816993713379,0.7920243144035339,-0.37148571014404297
1742766410566259500,0.757259521484375,9.020941734313965,0.48514479398727417,-0.45164528489112854
1742766410568656600,0.75965673828125,7.738388538360596,0.31345975399017334,-0.3397808074951172
1742766410571053800,0.7620537109375,8.97966480255127,0.7585247755050659,-0.031106693670153618
1742766410573451000,0.764450927734375,12.122637748718262,0.8063812255859375,-0.02871387079358101
1742766410575848400,0.766848388671875,13.572090148925781,0.2147558331489563,0.7028916478157043
1742766410578232300,0.769232421875,12.030513763427734,0.10169496387243271,0.1010967567563057
1742766410580642800,0.771642822265625,9.187840461730957,0.15732808411121368,-0.12023933976888657
1742766410583040000,0.7740400390625,8.188239097595215,0.380458801984787,-0.32183465361595154
1742766410585424000,0.776423828125,8.112865447998047,0.2667997181415558,-0.5455635786056519
1742766410587834600,0.778834716796875,8.944371223449707,0.07537391036748886,-0.36311084032058716
1742766410590231800,0.781231689453125,9.43190860748291,0.1782652884721756,0.01734796352684498
1742766410592629200,0.783629150390625,9.495318412780762,0.46899324655532837,-0.09092725813388824
1742766410595026400,0.7860263671875,8.391629219055176,-0.19980068504810333,0.2745763957500458
1742766410597423600,0.788423583984375,8.518448829650879,0.053240302950143814,0.33738797903060913
1742766410599820800,0.79082080078125,9.915857315063477,0.21176479756832123,0.11605189740657806
1742766410602218200,0.79321826171875,10.377073287963867,0.08075776696205139,-0.2709871530532837
1742766410604615400,0.795615478515625,9.67657470703125,0.15553347766399384,-0.607776939868927
1742766410606999300,0.797999267578125,7.943572998046875,0.37507495284080505,-0.7974081635475159
1742766410609409800,0.800409912109375,8.84805965423584,0.49710890650749207,-0.4701896607875824
1742766410611807200,0.80280712890625,11.823534965515137,0.9541380405426025,-0.7369893789291382
1742766410614191000,0.805191162109375,12.703495025634766,0.6903293132781982,-0.24466611444950104
1742766410616601600,0.8076015625,10.99322509765625,0.29431718587875366,0.17108681797981262
1742766410618998800,0.809998779296875,9.7005033493042,0.5940182209014893,0.26141586899757385
1742766410621396200,0.812396240234375,9.482157707214355,0.373878538608551,-0.0011964113218709826
1742766410623793400,0.81479345703125,10.006186485290527,0.24406790733337402,-0.5168496966362
1742766410626190600,0.817190673828125,9.874580383300781,0.4145565330982208,-0.7591229677200317
1742766410628587800,0.819587890625,10.083952903747559,0.16151553392410278,0.0771685317158699
1742766410630985200,0.821985107421875,10.995019912719727,0.11844471842050552,0.18903298676013947
1742766410633382400,0.82438232421875,11.863016128540039,0.0771685317158699,-0.10767702013254166
1742766410635779600,0.826779541015625,11.529217720031738,-0.10707881301641464,-0.06520441919565201
1742766410638176800,0.8291767578125,9.987043380737305,0.26440688967704773,0.1256231814622879
1742766410640574200,0.83157421875,9.105886459350586,0.5748756527900696,-0.037088751792907715
1742766410642958000,0.8339580078125,7.707880020141602,0.49292147159576416,-0.1866401731967926
1742766410645368600,0.83636865234375,7.325626373291016,0.39481574296951294,-0.3194418251514435
1742766410647766000,0.83876611328125,7.801798343658447,0.23270200192928314,-0.11246266216039658
1742766410650150000,0.84114990234375,6.984649181365967,0.04666004329919815,0.15074782073497772
1742766410652560400,0.843560302734375,6.33499813079834,0.2883351147174835,-0.1944168359041214
1742766410654957600,0.84595751953125,7.1024956703186035,1.0289137363433838,-0.31106695532798767
1742766410657355000,0.84835498046875,8.83370304107666,0.9469595551490784,-0.029910283163189888
1742766410659752200,0.850752197265625,10.284950256347656,0.5659025311470032,-0.5641079545021057
1742766410662149400,0.8531494140625,9.731011390686035,0.4139583110809326,-0.906281590461731
1742766410664546600,0.855546630859375,9.55633544921875,0.5946164131164551,-1.195214867591858
1742766410666944000,0.857944091796875,11.146366119384766,1.073180913925171,-1.3962119817733765
1742766410669341200,0.860341064453125,11.815159797668457,0.4863412082195282,-0.4624129831790924
1742766410671738400,0.86273828125,10.693524360656738,0.07597211748361588,-0.5676971673965454
1742766410674135600,0.865135498046875,9.8207426071167,0.5126622319221497,-0.47198426723480225
1742766410676533000,0.867532958984375,8.642276763916016,0.5198407173156738,0.25363919138908386
1742766410678916900,0.869916748046875,8.003393173217773,0.20159530639648438,-0.12263216078281403
1742766410681327400,0.872327392578125,8.556734085083008,0.41934216022491455,-0.6795616149902344
1742766410683724500,0.874724609375,9.528818130493164,0.45104706287384033,-0.20518454909324646
1742766410686108700,0.877108642578125,12.228520393371582,0.363709032535553,0.2829512655735016
1742766410688519200,0.879519287109375,13.24547004699707,-0.12203395366668701,-0.016749758273363113
1742766410690916400,0.881916259765625,10.765907287597656,-0.771087110042572,-0.11964113265275955
1742766410693300200,0.88430029296875,8.366504669189453,-0.12861421704292297,0.20338992774486542
1742766410695711000,0.8867109375,9.973284721374512,0.6263213157653809,-0.014955141581594944
1742766410698108200,0.889108154296875,10.460822105407715,0.2745763957500458,0.08195417374372482
1742766410700505300,0.89150537109375,10.186843872070312,0.3732803463935852,-0.26440688967704773
1742766410702902800,0.89390283203125,9.621540069580078,0.776470959186554,-0.33738797903060913
1742766410705300000,0.896300048828125,9.878170013427734,0.550349235534668,-0.2721835672855377
1742766410707697200,0.898697265625,10.936994552612305,0.5437689423561096,-0.5605186820030212
1742766410710094300,0.90109423828125,10.796415328979492,0.7004988193511963,-0.6789634227752686
1742766410712491800,0.90349169921875,10.112667083740234,0.5353940725326538,-0.6065805554389954
1742766410714889000,0.905888916015625,10.38066291809082,0.5306084156036377,-0.9643075466156006
1742766410717286100,0.9082861328125,10.24487018585205,0.6933203339576721,-0.49591249227523804
1742766410719683600,0.91068359375,9.501898765563965,0.3026920557022095,-0.058624155819416046
1742766410722067200,0.913067138671875,8.787641525268555,0.36191442608833313,-0.15672987699508667
1742766410724478000,0.91547802734375,9.486345291137695,0.41216370463371277,-0.05802594870328903
1742766410726875100,0.917875244140625,9.124430656433105,-0.19381862878799438,-0.25064817070961
1742766410729259000,0.920259033203125,7.882555961608887,-0.129810631275177,-0.5904290080070496
1742766410731669800,0.922669677734375,8.056035995483398,-0.22133609652519226,-0.9768698215484619
1742766410734067000,0.92506689453125,8.71645450592041,-0.13878370821475983,-0.7830511927604675
1742766410736464100,0.927464111328125,10.350153923034668,0.29371899366378784,-0.24167509377002716
1742766410738861300,0.929861328125,10.98185920715332,0.43549370765686035,0.4289134442806244
1742766410741258800,0.9322587890625,10.835897445678711,0.2147558331489563,0.50907301902771
1742766410743642600,0.934642578125,11.279766082763672,-0.06400800496339798,0.29730820655822754
1742766410746053000,0.93705322265625,10.086943626403809,-0.5282155871391296,0.3164508044719696
1742766410748450600,0.939450439453125,9.415159225463867,-0.017946170642971992,0.3397808074951172
1742766410750847700,0.94184765625,10.28195858001709,0.4247260093688965,0.04007977992296219
1742766410753245000,0.944244873046875,10.923234939575195,0.09990034252405167,-0.0771685317158699
1742766410755642000,0.94664208984375,11.432308197021484,0.372682124376297,-0.3242274820804596
1742766410758039600,0.94903955078125,10.231111526489258,0.6538388133049011,-0.13459627330303192
1742766410760436700,0.951436767578125,9.495916366577148,0.45224347710609436,0.503689169883728
1742766410762834000,0.953833984375,10.182058334350586,0.37088751792907715,0.11126625537872314
1742766410765231000,0.956231201171875,10.818549156188965,0.053240302950143814,-0.5198407173156738
1742766410767628500,0.958628662109375,10.4219388961792,-0.13938191533088684,-0.8057830333709717
1742766410770025700,0.961025634765625,10.813165664672852,0.06999006122350693,-1.048654556274414
1742766410772423000,0.9634228515625,11.602198600769043,-0.22552353143692017,-0.9852447509765625
1742766410774820400,0.9658203125,10.879566192626953,0.13639089465141296,-0.7962117195129395
1742766410777217500,0.968217529296875,9.635298728942871,0.8303094506263733,-0.6562315821647644
1742766410779614700,0.97061474609375,9.405587196350098,1.1575279235839844,-0.11126625537872314
1742766410782012000,0.973011962890625,8.819944381713867,1.2975081205368042,0.11964113265275955
1742766410784409300,0.975409423828125,8.401798248291016,0.9840483069419861,0.18065811693668365
1742766410786806500,0.977806640625,9.139984130859375,0.5539384484291077,0.28115665912628174
1742766410789203700,0.98020361328125,9.664610862731934,0.3798605799674988,0.12681959569454193
1742766410791601000,0.982600830078125,8.822935104370117,0.19980068504810333,0.0849452018737793
1742766410793984800,0.98498486328125,7.752147197723389,-0.01136590726673603,0.11006984114646912
1742766410796395500,0.9873955078125,8.271389961242676,0.19980068504810333,-0.1657029688358307
1742766410798792700,0.989792724609375,8.524430274963379,0.363709032535553,-0.12263216078281403
1742766410801190000,0.99218994140625,9.001200675964355,0.11665010452270508,0.02751746028661728
1742766410803587300,0.99458740234375,9.521040916442871,0.2997010350227356,-0.2679961323738098
1742766410805984500,0.996984619140625,10.49073314666748,0.17706887423992157,-0.2805584669113159
1742766410808368400,0.999368408203125,11.69432258605957,0.12083754688501358,0.2877369225025177
1742766410810779000,1.00177880859375,12.88654613494873,0.17347964644432068,-0.05742774158716202
1742766410813176300,1.00417626953125,11.886944770812988,0.014955141581594944,-1.0414760112762451
1742766410815573500,1.006573486328125,9.120243072509766,0.13160525262355804,-0.7968099117279053
1742766410817970700,1.008970703125,8.300103187561035,1.0145567655563354,-0.5521438121795654
1742766410820368000,1.011367919921875,9.272786140441895,1.0618150234222412,-0.2919243574142456
1742766410822765300,1.013765380859375,10.585248947143555,0.6975077986717224,-0.597607433795929
1742766410825162500,1.01616259765625,10.905289649963379,0.41874396800994873,-0.2991028428077698
1742766410827559700,1.0185595703125,10.717453002929688,0.061016976833343506,-0.30508488416671753
1742766410829957000,1.02095703125,9.951150894165039,0.029910283163189888,-0.5946164131164551
1742766410832354300,1.023354248046875,8.874979019165039,0.6592226624488831,-0.40259242057800293
1742766410834751500,1.02575146484375,9.345169067382812,1.0151549577713013,-0.24466611444950104
1742766410837148700,1.028148681640625,10.24905776977539,0.763310432434082,-0.2147558331489563
1742766410839546000,1.030546142578125,10.122238159179688,0.5306084156036377,-0.5688936114311218
1742766410841943300,1.032943359375,9.375677108764648,0.46061834692955017,-0.5814558863639832
1742766410844340500,1.035340576171875,9.431310653686523,0.6017948985099792,-0.023330021649599075
1742766410846737700,1.037737548828125,11.712268829345703,0.6197410821914673,0.3236292600631714
1742766410849134800,1.040134765625,13.123435974121094,0.08374879509210587,0.3032902777194977
1742766410851519000,1.04251904296875,12.07358455657959,-0.2925225794315338,0.18005990982055664
1742766410853929500,1.044929443359375,10.086345672607422,-0.03290131315588951,0
1742766410856326700,1.04732666015625,8.8438720703125,0.053240302950143814,0.017946170642971992
1742766410858710500,1.04971044921875,8.02074146270752,0.3720839321613312,0.016749758273363113
1742766410861121300,1.052121337890625,8.641080856323242,0.6358926296234131,-0.040677983313798904
1742766410863518500,1.0545185546875,10.04985523223877,0.6496513485908508,0.24646073579788208
1742766410865915600,1.05691552734375,10.828719139099121,0.43549370765686035,0.029312077909708023
1742766410868313000,1.05931298828125,9.946365356445312,0.064606212079525,0.12921242415905
1742766410870710300,1.061710205078125,8.184649467468262,-0.12681959569454193,0.3846462368965149
1742766410873094100,1.06409423828125,8.352147102355957,0.30508488416671753,-0.15134602785110474
1742766410875504600,1.066504638671875,9.140582084655762,0.09092725813388824,-0.2679961323738098
1742766410877902000,1.068902099609375,8.264809608459473,-0.04127619042992592,-0.3481557071208954
1742766410880286000,1.071285888671875,7.090531826019287,0.388235479593277,-0.5473581552505493
1742766410882696400,1.073696533203125,8.353941917419434,0.5312066078186035,-0.6789634227752686
1742766410885094000,1.076093994140625,10.473982810974121,0.7740781307220459,-0.8632107973098755
1742766410887477800,1.078477783203125,10.863414764404297,1.1012966632843018,-0.9720842242240906
1742766410889888300,1.08088818359375,10.773085594177246,1.0534402132034302,-0.10049854964017868
1742766410892285400,1.083285400390625,10.972288131713867,0.8626125454902649,0.5593222975730896
1742766410894669300,1.08566943359375,12.196815490722656,0.6209374666213989,0.25064817070961
1742766410897080000,1.088080078125,11.733803749084473,-0.019142581149935722,-0.2273181527853012
1742766410899477200,1.090477294921875,8.504690170288086,-0.039481572806835175,-0.1866401731967926
1742766410901861000,1.092861083984375,7.64028263092041,0.11605189740657806,0.01136590726673603
1742766410904272000,1.09527197265625,9.382855415344238,-0.13220344483852386,0.22971096634864807
1742766410906669000,1.0976689453125,12.235100746154785,-0.2153540402650833,0.21774685382843018
1742766410909053000,1.100052978515625,11.889337539672852,-0.12323036789894104,0.07178468257188797
1742766410911463400,1.10246337890625,9.328418731689453,-0.40677985548973083,0.047258246690034866
1742766410913860900,1.10486083984375,8.072785377502441,0.012562318705022335,-0.14715859293937683
1742766410916258000,1.107258056640625,9.584450721740723,0.6855437159538269,-0.3565305769443512
1742766410918655200,1.1096552734375,10.552348136901855,0.6532405614852905,-0.24466611444950104
1742766410921052400,1.112052490234375,9.825528144836426,0.5258227586746216,-0.2961117923259735
1742766410923436500,1.1144365234375,8.514261245727539,0.7926225066184998,-0.32961133122444153
1742766410925847000,1.116846923828125,7.271788120269775,0.8691928386688232,-0.20757736265659332
1742766410928244200,1.119244140625,7.475776195526123,1.0761719942092896,-0.4019941985607147
1742766410930641400,1.121641357421875,9.68494987487793,1.0666006803512573,-0.3643072545528412
1742766410933038800,1.124038818359375,10.445268630981445,0.36729827523231506,-0.4695914387702942
1742766410935436000,1.12643603515625,9.55513858795166,0.2793620526790619,-0.9302098155021667
1742766410937833200,1.128833251953125,8.970093727111816,0.2883351147174835,-1.181456208229065
1742766410940230700,1.131230712890625,9.375677108764648,0.45583271980285645,-0.48574298620224
1742766410942627800,1.1336279296875,10.88136100769043,0.8177471160888672,-0.2111666053533554
1742766410945011700,1.13601171875,10.878968238830566,0.6197410821914673,-0.5551348328590393
1742766410947422200,1.138422119140625,9.193224906921387,0.5084748268127441,-0.0568295381963253
1742766410949819600,1.140819580078125,8.382058143615723,0.592223584651947,-0.3355933725833893
1742766410952203500,1.14320361328125,7.425527095794678,0.05922235921025276,-0.4456632137298584
1742766410954614000,1.145614013671875,8.288737297058105,0.36191442608833313,-0.2745763957500458
1742766410957011200,1.14801123046875,10.278369903564453,0.7381857633590698,0.17527425289154053
1742766410959395000,1.15039501953125,11.648261070251465,-0.013160524889826775,0.3487538993358612
1742766410961805800,1.152805908203125,11.579466819763184,-0.7483552694320679,-0.054436713457107544
1742766410964203000,1.155203125,9.949356079101562,-0.2602194547653198,-0.47198426723480225
1742766410966587000,1.1575869140625,8.380263328552246,-0.08434699475765228,-0.0011964113218709826
1742766410968997600,1.15999755859375,8.412566184997559,0.4331009089946747,0.001794616924598813
1742766410971394800,1.162394775390625,10.117452621459961,0.9433703422546387,-0.4139583110809326
1742766410973778700,1.16477880859375,10.874780654907227,0.9427721500396729,-0.49172505736351013
1742766410976189200,1.167189208984375,9.807581901550293,0.833898663520813,-0.09451649338006973
1742766410978586600,1.169586669921875,9.952347755432129,0.7537391185760498,0.1950150430202484
1742766410980983800,1.17198388671875,9.320642471313477,0.25363919138908386,-0.12502498924732208
1742766410983381000,1.174381103515625,7.7940216064453125,0.4588237404823303,-0.6969096064567566
1742766410985778200,1.176778076171875,8.100900650024414,0.8620143532752991,-0.8051848411560059
1742766410988175600,1.179175537109375,8.96112060546875,0.6795616149902344,-0.46002015471458435
1742766410990572800,1.18157275390625,10.319645881652832,0.45104706287384033,-0.4259224236011505
1742766410992970000,1.183969970703125,11.305488586425781,0.5730810165405273,-0.7094719409942627
1742766410995367400,1.186367431640625,9.595218658447266,0.5377869009971619,-0.3529413342475891
1742766410997764600,1.1887646484375,9.050253868103027,0.4456632137298584,-0.16151553392410278
1742766411000161800,1.191161865234375,9.437891006469727,0.43968117237091064,-0.03409772366285324
1742766411002559000,1.19355908203125,8.858827590942383,0.4408775866031647,0.3810569941997528
1742766411004956400,1.195956298828125,9.235098838806152,0.20518454909324646,0.8506484627723694
1742766411007353600,1.198353515625,9.230313301086426,-0.11485548317432404,2.2301106452941895
1742766411009737500,1.200737548828125,8.535796165466309,-0.08673982322216034,2.7738797664642334
1742766411012148000,1.20314794921875,8.93240737915039,0.34576287865638733,1.566102385520935
1742766411014545400,1.20554541015625,10.182058334350586,0.3577269911766052,-0.064606212079525
1742766411016929300,1.20792919921875,11.356934547424316,0.2566302418708801,-1.0821540355682373
1742766411019339800,1.21033984375,10.067801475524902,0.243469700217247,-1.1982059478759766
1742766411021737000,1.212737060546875,8.603992462158203,-0.3535395562648773,-0.8458628058433533
1742766411024120800,1.215120849609375,9.654440879821777,-0.04366901144385338,-1.6510475873947144
1742766411026531600,1.217531494140625,11.726027488708496,0.1866401731967926,-2.4783661365509033
1742766411028928800,1.2199287109375,12.369696617126465,-0.35473597049713135,-2.0207388401031494
1742766411031312600,1.222312744140625,11.571690559387207,-0.03170489892363548,0.04426721855998039
1742766411033723400,1.224723388671875,9.906285285949707,0.6047859191894531,-0.5341976284980774
1742766411036120600,1.22712060546875,8.46042251586914,0.45942193269729614,-0.32183465361595154
1742766411038517800,1.229517822265625,9.258428573608398,0.6550351977348328,-0.5706881880760193
1742766411040915200,1.231915283203125,11.328819274902344,0.6239284873008728,-0.4085744619369507
1742766411043312400,1.2343125,11.985648155212402,0.23030917346477509,-0.1453639715909958
1742766411045709600,1.23670947265625,10.03011417388916,-0.19621145725250244,-0.7722834944725037
1742766411048106800,1.239106689453125,8.587242126464844,-0.13998012244701385,-0.8590233325958252
1742766411050504200,1.241504150390625,8.565707206726074,0.061016976833343506,-0.30508488416671753
1742766411052901400,1.2439013671875,9.862616539001465,0.6640082597732544,-0.1860419660806656
1742766411055298600,1.246298583984375,9.372686386108398,0.7070791125297546,-0.31345975399017334
1742766411057695700,1.24869580078125,7.585845947265625,0.6909275650978088,-0.02871387079358101
1742766411060079900,1.251079833984375,7.463213920593262,0.5144568681716919,-0.2147558331489563
1742766411062490400,1.253490478515625,9.08853816986084,0.006580262444913387,-0.5353940725326538
1742766411064887600,1.255887451171875,9.427123069763184,0.1453639715909958,-0.04486542567610741
1742766411067285000,1.258284912109375,9.244669914245605,0.617946445941925,0.11006984114646912
1742766411069682200,1.26068212890625,8.886942863464355,0.06400800496339798,-0.18723836541175842
1742766411072079400,1.263079345703125,9.150154113769531,-0.3314059376716614,-0.24167509377002716
1742766411074476500,1.2654765625,9.356534957885742,0.016749758273363113,-0.14057832956314087
1742766411076874000,1.2678740234375,8.60459041595459,0.031106693670153618,0.15613168478012085
1742766411079271200,1.270271240234375,8.225926399230957,0.4546363055706024,0.07357929646968842
1742766411081668400,1.27266845703125,9.715457916259766,0.5324030518531799,0.05144568532705307
1742766411084065500,1.2750654296875,11.01296615600586,0.23330020904541016,0.03290131315588951
1742766411086462700,1.277462646484375,11.222936630249023,0.267397940158844,-0.7154539823532104
1742766411088860200,1.279860107421875,10.02173900604248,0.5102694034576416,-0.5156532526016235
1742766411091257300,1.28225732421875,9.424132347106934,0.39062830805778503,-0.6346961855888367
1742766411093654500,1.284654541015625,10.16590690612793,0.4707878530025482,-0.9308080077171326
1742766411096052000,1.287052001953125,10.549356460571289,0.4570291340351105,-1.0504491329193115
1742766411098449200,1.28944921875,11.068000793457031,0.40677985548973083,-0.4043870270252228
1742766411100846300,1.291846435546875,10.774880409240723,0.4893322288990021,-0.42711883783340454
1742766411103243500,1.294243408203125,9.724431037902832,0.13639089465141296,-0.5359922647476196
1742766411105641000,1.296640869140625,8.666803359985352,0.4366901218891144,-0.09391828626394272
1742766411108038100,1.2990380859375,9.412766456604004,0.981655478477478,-0.035892341285943985
1742766411110435300,1.301435302734375,10.183255195617676,0.672383189201355,-0.13938191533088684
1742766411112832500,1.30383251953125,10.41894817352295,0.19322042167186737,0.12921242415905
1742766411115230000,1.30622998046875,10.369894981384277,-0.10049854964017868,0.875174880027771
1742766411117613800,1.30861376953125,9.837491989135742,0.003589233849197626,1.6480566263198853
1742766411120024300,1.3110244140625,10.02592658996582,0.24945175647735596,1.3824533224105835
1742766411122421800,1.313421875,11.391032218933105,0.6454638838768005,0.1908276081085205
1742766411124805400,1.315805419921875,12.235100746154785,0.5742774605751038,-0.8967102766036987
1742766411127216000,1.318216064453125,11.066804885864258,0.0687936544418335,-1.1826525926589966
1742766411129613300,1.32061328125,9.54377269744873,0.017946170642971992,-0.9649057388305664
1742766411131997200,1.3229970703125,8.749954223632812,-0.11904292553663254,-0.9020941257476807
1742766411134408000,1.325407958984375,8.044071197509766,-0.04666004329919815,-0.747757077217102
1742766411136805000,1.32780517578125,9.512666702270508,0.16031911969184875,-0.973878800868988
1742766411139202300,1.330202392578125,10.530214309692383,0.052043892443180084,-0.9194421172142029
1742766411141599700,1.332599853515625,10.389636039733887,0.18544375896453857,-0.3565305769443512
1742766411143997000,1.334996826171875,9.17288589477539,0.5886343717575073,0.11964113265275955
1742766411146380800,1.337380859375,8.321639060974121,0.4091726839542389,-0.07477571070194244
1742766411148791300,1.339791259765625,9.698110580444336,0.34995031356811523,-0.46360939741134644
1742766411151188700,1.342188720703125,10.479366302490234,0.3152543902397156,-0.43190449476242065
1742766411153586000,1.3445859375,9.747760772705078,0.2225325107574463,-0.5401797294616699
1742766411155983000,1.346983154296875,9.583852767944336,0.24586252868175507,-1.7784653902053833
1742766411158380300,1.34938037109375,9.204590797424316,0.27756741642951965,-1.414756417274475
1742766411160777700,1.35177783203125,8.741579055786133,0.5910272002220154,-0.29312077164649963
1742766411163175000,1.3541748046875,9.837491989135742,1.1569297313690186,-0.05503492057323456
1742766411165572000,1.356572021484375,10.39202880859375,0.8380861282348633,0.3655036687850952
1742766411167969300,1.35896923828125,10.137791633605957,0.45523449778556824,0.34995031356811523
1742766411170366700,1.36136669921875,9.77109146118164,0.267397940158844,0.02632104977965355
1742766411172764000,1.363763916015625,9.561718940734863,-0.2512463629245758,-0.251844584941864
1742766411175161000,1.3661611328125,9.622735977172852,0.23389841616153717,-0.27337998151779175
1742766411177558500,1.36855859375,10.879566192626953,0.5497509837150574,0.06819544732570648
1742766411179955700,1.370955810546875,11.407781600952148,-0.3852444589138031,0.12382857501506805
1742766411182339600,1.373339599609375,11.401800155639648,-0.7112665176391602,-0.2679961323738098
1742766411184750000,1.37575,10.094121932983398,-0.3206382393836975,-0.3535395562648773
1742766411187147500,1.3781474609375,8.094321250915527,-0.21236300468444824,0.23688943684101105
1742766411189544700,1.380544677734375,8.885746955871582,0.17766708135604858,-0.11006984114646912
1742766411191942000,1.38294189453125,11.742776870727539,0.44327038526535034,-0.5341976284980774
1742766411194339000,1.385339111328125,12.125030517578125,0.617946445941925,-0.24885354936122894
1742766411196736500,1.387736572265625,10.26640510559082,0.9236295223236084,-0.8428717851638794
1742766411199133700,1.3901337890625,8.788239479064941,0.6897311210632324,-1.031306505203247
1742766411201531000,1.39253076171875,8.551349639892578,0.4713860750198364,-0.6370890140533447
1742766411203928000,1.394927978515625,8.891130447387695,0.9134600162506104,-0.8255237936973572
1742766411206325500,1.397325439453125,9.120841979980469,0.9158528447151184,-0.7878368496894836
1742766411208722700,1.39972265625,8.839685440063477,0.4169493317604065,-0.5515456199645996
1742766411211119900,1.402119873046875,9.153144836425781,0.6364908218383789,-0.9038887619972229
1742766411213517000,1.40451708984375,8.986245155334473,0.5557330846786499,-0.4701896607875824
1742766411215914500,1.40691455078125,9.277571678161621,0.6293123364448547,-0.18484555184841156
1742766411218311700,1.409311767578125,9.630513191223145,0.8027920126914978,-0.9421738982200623
1742766411220708900,1.411708984375,8.613563537597656,0.4540380835533142,-0.8273184299468994
1742766411223106000,1.41410595703125,8.569295883178711,0.17168502509593964,-0.5473581552505493
1742766411225503500,1.41650341796875,10.391430854797363,0.4307080805301666,-0.9218349456787109
1742766411227900700,1.418900634765625,11.733803749084473,0.4181457459926605,-0.27756741642951965
1742766411230297900,1.4212978515625,10.649256706237793,0.5324030518531799,0.2111666053533554
1742766411232695300,1.4236953125,10.445268630981445,0.3840480446815491,0.0011964113218709826
1742766411235092500,1.426092529296875,10.195219039916992,-0.3535395562648773,-0.2919243574142456
1742766411237489700,1.42848974609375,8.983254432678223,-0.4223332107067108,-0.4707878530025482
1742766411239873500,1.43087353515625,7.554141044616699,0.0933200865983963,-0.3026920557022095
1742766411242284300,1.4332841796875,7.57507848739624,-0.03529413416981697,-0.24167509377002716
1742766411244681500,1.435681396484375,9.89013385772705,0.31764721870422363,-0.32602208852767944
1742766411247065300,1.4380654296875,12.376874923706055,0.7495517134666443,-0.39122650027275085
1742766411249475800,1.440475830078125,11.341381072998047,0.41216370463371277,0.08015955984592438
1742766411251873300,1.442873291015625,10.220941543579102,0.3008974492549896,0.020338991656899452
1742766411254270500,1.4452705078125,9.238688468933105,0.27397820353507996,-0.6107679605484009
1742766411256667600,1.447667724609375,8.176873207092285,0.48095735907554626,-0.597607433795929
1742766411259064800,1.45006494140625,8.929415702819824,0.9182456731796265,-0.8303094506263733
1742766411261462300,1.452462158203125,10.670792579650879,0.7716853022575378,-1.0157532691955566
1742766411263859500,1.454859375,12.214162826538086,0.3032902777194977,-0.9744769930839539
1742766411266256600,1.457256591796875,12.270992279052734,0.37866419553756714,-0.755533754825592
1742766411268653800,1.45965380859375,10.313065528869629,0.20877377688884735,-0.42771705985069275
1742766411271051300,1.46205126953125,8.86780071258545,0.4821537733078003,-0.2847459018230438
1742766411273448400,1.464448486328125,8.915059089660645,0.9583254456520081,-0.22073788940906525
1742766411275845600,1.466845703125,9.482755661010742,0.7124629616737366,-0.15194423496723175
1742766411278242800,1.469242919921875,10.969297409057617,0.2632105052471161,-0.4049852192401886
1742766411280640300,1.47164013671875,10.559526443481445,0.022133609279990196,-0.5096712112426758
1742766411283037400,1.474037353515625,8.995218276977539,-0.1950150430202484,-0.3361915946006775
1742766411285434600,1.4764345703125,8.044071197509766,0.024526432156562805,0.20458634197711945
1742766411287832000,1.47883203125,9.452247619628906,0.05503492057323456,0.04486542567610741
1742766411290229200,1.481229248046875,10.15155029296875,-0.3032902777194977,0.11246266216039658
1742766411292626400,1.48362646484375,8.84088134765625,-0.08434699475765228,-0.07357929646968842
1742766411295023600,1.486023681640625,7.710272789001465,0.2476571500301361,-0.5210371017456055
1742766411297407500,1.488407470703125,7.459624767303467,0.0023928226437419653,-0.4223332107067108
1742766411299818200,1.490818359375,9.152546882629395,0.2709871530532837,-0.10588239878416061
1742766411302215400,1.49321533203125,10.942975997924805,0.45284169912338257,-0.2991028428077698
1742766411304612600,1.495612548828125,10.302896499633789,0.27038896083831787,-0.40797626972198486
1742766411307010000,1.498010009765625,9.327820777893066,0.4462614357471466,-0.5814558863639832
1742766411309407200,1.5004072265625,8.845666885375977,0.6879364848136902,-0.4456632137298584
1742766411311804400,1.502804443359375,9.712467193603516,0.7489534616470337,-0.4091726839542389
1742766411314201600,1.50520166015625,11.715259552001953,0.7722834944725037,-0.7471588850021362
1742766411316599000,1.50759912109375,12.352947235107422,0.30927231907844543,-0.841675341129303
1742766411318996200,1.509996337890625,11.123634338378906,-0.24646073579788208,-0.646660327911377
1742766411321393400,1.512393310546875,10.086345672607422,-0.10169496387243271,-0.5377869009971619
1742766411323790600,1.51479052734375,9.181859016418457,-0.19322042167186737,-0.35114672780036926
1742766411326188000,1.51718798828125,8.889336585998535,0.259621262550354,-0.3523431420326233
1742766411328585200,1.519585205078125,9.574281692504883,0.7034898400306702,-0.17108681797981262
1742766411330982400,1.521982421875,9.997811317443848,0.14775680005550385,-0.21774685382843018
1742766411333379600,1.524379638671875,10.75693416595459,-0.02273181453347206,-0.6729813814163208
1742766411335777000,1.526777099609375,10.148558616638184,0.3242274820804596,-1.0408778190612793
1742766411338174200,1.52917431640625,9.956535339355469,0.3529413342475891,-0.4875376224517822
1742766411340571400,1.5315712890625,11.244471549987793,0.4701896607875824,-0.37088751792907715
1742766411342968800,1.53396875,12.087343215942383,0.550349235534668,-0.2632105052471161
1742766411345366000,1.536365966796875,10.05284595489502,0.3361915946006775,0.18305093050003052
1742766411347750000,1.53875,8.430512428283691,0.17228323221206665,-0.04247260093688965
1742766411350160400,1.541160400390625,7.901100158691406,-0.07417750358581543,-0.23808585107326508
1742766411352557800,1.543557861328125,7.536793231964111,-0.03768695518374443,0.20099709928035736
1742766411354941700,1.545941650390625,7.152745246887207,0.388235479593277,-0.3194418251514435
1742766411357352200,1.548352294921875,8.902496337890625,0.7746763229370117,-0.5982056856155396
1742766411359749400,1.550749267578125,9.775876998901367,0.24646073579788208,-0.5401797294616699
1742766411362146800,1.553146728515625,10.098309516906738,0.13160525262355804,-0.6753742098808289
1742766411364544000,1.5555439453125,9.156734466552734,0.32662028074264526,-0.7722834944725037
1742766411366941200,1.557941162109375,8.760123252868652,0.625723123550415,-0.6125625967979431
1742766411369338600,1.560338623046875,9.969695091247559,0.914058268070221,-0.5084748268127441
1742766411371735800,1.56273583984375,11.80319595336914,0.6711867451667786,-0.25722843408584595
1742766411374133000,1.565133056640625,11.874980926513672,0.2189432680606842,-0.9643075466156006
1742766411376530200,1.5675302734375,10.27597713470459,0.4875376224517822,-1.1880364418029785
1742766411378927400,1.56992724609375,8.422137260437012,0.44745782017707825,-0.9409775137901306
1742766411381324800,1.57232470703125,7.855038642883301,0.5838487148284912,-0.844068169593811
1742766411383722000,1.574721923828125,9.334999084472656,0.6364908218383789,-0.5228317379951477
1742766411386119200,1.577119140625,10.186245918273926,0.39182472229003906,-0.21236300468444824
1742766411388516400,1.579516357421875,10.549356460571289,0.4492524564266205,-0.48394837975502014
1742766411390913800,1.581913818359375,10.466206550598145,0.23808585107326508,-0.20398813486099243
1742766411393311000,1.58431103515625,10.462018966674805,0.1788634955883026,0.23808585107326508
1742766411395708200,1.586708251953125,11.09611701965332,0.07178468257188797,0.21714866161346436
1742766411398092000,1.589092041015625,11.95454216003418,0.013160524889826775,-0.4941178858280182
1742766411400502800,1.591502685546875,11.260025024414062,-0.05024927482008934,-0.7363911867141724
1742766411402900000,1.59389990234375,9.583852767944336,-0.129810631275177,-0.7088736891746521
1742766411405283800,1.596283935546875,8.312665939331055,-0.040677983313798904,-0.39541393518447876
1742766411407694600,1.598694580078125,9.230911254882812,0.15254244208335876,-0.049651071429252625
1742766411410091800,1.601091796875,10.464411735534668,0.7716853022575378,-0.4630111753940582
1742766411412489000,1.603489013671875,11.055438995361328,0.6789634227752686,-0.5892325639724731
1742766411414886100,1.60588623046875,9.709476470947266,0.21714866161346436,-0.5593222975730896
1742766411417283600,1.60828369140625,9.123234748840332,0.2841476798057556,-0.9343972206115723
1742766411419680800,1.6106806640625,9.80937671661377,0.6209374666213989,-1.2245270013809204
1742766411422078000,1.613077880859375,9.473783493041992,0.6119644045829773,-1.057029366493225
1742766411424475100,1.61547509765625,9.586843490600586,0.4630111753940582,-0.5437689423561096
1742766411426872600,1.61787255859375,10.055238723754883,0.14057832956314087,-0.5557330846786499
1742766411429269800,1.620269775390625,9.9409818649292,0.05623133108019829,-1.0564311742782593
1742766411431667000,1.6226669921875,8.689535140991211,0.5581258535385132,-0.6747759580612183
1742766411434050800,1.62505078125,8.185846328735352,0.5455635786056519,-0.15912270545959473
1742766411436461600,1.627461669921875,8.424530029296875,0.267397940158844,-0.03290131315588951
1742766411438858800,1.629858642578125,9.736394882202148,0.35892340540885925,-0.35413774847984314
1742766411441256000,1.632255859375,9.664012908935547,0.3846462368965149,-0.8542376756668091
1742766411443653400,1.6346533203125,9.45045280456543,0.17288143932819366,-0.7639086246490479
1742766411446050600,1.637050537109375,9.54796028137207,0.06819544732570648,-0.4737788736820221
1742766411448447700,1.63944775390625,9.996614456176758,0.23330020904541016,-0.3074777126312256
1742766411450845000,1.641844970703125,10.52363395690918,0.6269195079803467,0.18783657252788544
1742766411453242400,1.644242431640625,11.809776306152344,0.5545366406440735,0.24646073579788208
1742766411455626200,1.646626220703125,11.890533447265625,-0.2225325107574463,0.01375873014330864
1742766411458036700,1.64903662109375,10.757532119750977,-0.5132604837417603,-0.3326023519039154
1742766411460434000,1.651433837890625,8.861818313598633,-0.3038884699344635,-0.6795616149902344
1742766411462817800,1.65381787109375,8.700303077697754,0.01136590726673603,-0.486939400434494
1742766411465228500,1.656228515625,10.088140487670898,0.16510476171970367,-0.6897311210632324
1742766411467625700,1.658625732421875,10.990832328796387,0.4546363055706024,-0.6616154313087463
1742766411470023200,1.661023193359375,10.353743553161621,0.4175475537776947,-0.20757736265659332
1742766411472420400,1.66342041015625,9.798608779907227,0.3840480446815491,-0.50129634141922
1742766411474817500,1.665817626953125,9.351150512695312,0.06281159073114395,-0.7692924737930298
1742766411477201400,1.668201416015625,8.6303129196167,0.2763710021972656,-0.3852444589138031
1742766411479612000,1.67061181640625,9.128020286560059,0.7423732280731201,-0.3170489966869354
1742766411482009300,1.67300927734375,11.041081428527832,0.6323033571243286,-0.8273184299468994
1742766411484406500,1.675406494140625,10.961520195007324,0.44386860728263855,-1.4231312274932861
1742766411486803700,1.6778037109375,8.955737113952637,0.7202396392822266,-0.9978070259094238
1742766411489201000,1.680200927734375,7.667799949645996,0.6418746709823608,-0.4049852192401886
1742766411491585000,1.6825849609375,8.13081169128418,0.7740781307220459,-0.2386840581893921
1742766411493995500,1.68499560546875,9.720842361450195,0.9098708033561707,-0.17527425289154053
1742766411496392700,1.687392822265625,9.78245735168457,0.5108676552772522,-0.17706887423992157
1742766411498790100,1.6897900390625,10.36630630493164,0.16749759018421173,-0.5856433510780334
1742766411501187300,1.692187255859375,10.193424224853516,0.1704886108636856,-0.5365904569625854
1742766411503584500,1.69458447265625,9.477970123291016,0.3026920557022095,-0.029910283163189888
1742766411505981700,1.696981689453125,9.449854850769043,0.24586252868175507,-0.11605189740657806
1742766411508379100,1.699379150390625,11.072786331176758,-0.0323031060397625,-0.8309076428413391
1742766411510776300,1.7017763671875,10.451251029968262,-0.5527420043945312,-0.7322037220001221
1742766411513160200,1.70416015625,8.251648902893066,-0.15672987699508667,-0.1010967567563057
1742766411515570700,1.70657080078125,7.9728851318359375,0.33918261528015137,-0.13100704550743103
1742766411517968100,1.708968017578125,10.05404281616211,0.23808585107326508,-0.15074782073497772
1742766411520365300,1.711365234375,10.801201820373535,0.2626122832298279,-0.5904290080070496
1742766411522762500,1.713762451171875,10.03310489654541,0.36311084032058716,-0.5162515044212341
1742766411525160000,1.716159912109375,8.539385795593262,0.26919254660606384,-0.17108681797981262
1742766411527557000,1.71855712890625,9.565906524658203,0.6107679605484009,-0.6047859191894531
1742766411529954300,1.720954345703125,10.204192161560059,0.486939400434494,-1.2448660135269165
1742766411532351500,1.7233515625,8.86780071258545,0.4055834412574768,-1.0612168312072754
1742766411534748700,1.725748779296875,9.189037322998047,0.8315058946609497,-0.9601200819015503
1742766411537146000,1.72814599609375,10.604990005493164,0.6317051649093628,-0.7022934556007385
1742766411539543300,1.730543212890625,11.178668975830078,0.37028929591178894,-0.4618147611618042
1742766411541940500,1.7329404296875,11.027921676635742,0.5443671345710754,-0.3846462368965149
1742766411544337700,1.735337646484375,9.515657424926758,0.35114672780036926,-0.17288143932819366
1742766411546735000,1.737735107421875,7.828119277954102,0.4378865361213684,-0.33020952343940735
1742766411549132300,1.74013232421875,8.73320484161377,0.882951557636261,-0.8015955686569214
1742766411551529500,1.742529541015625,9.936196327209473,0.4743770956993103,-1.1156535148620605
1742766411553927000,1.744927001953125,11.069795608520508,-0.1657029688358307,-0.8123632669448853
1742766411556324000,1.747323974609375,10.477572441101074,0.05922235921025276,-0.5521438121795654
1742766411558721300,1.74972119140625,9.541379928588867,0.18065811693668365,-0.21655045449733734
1742766411561118500,1.752118408203125,9.926624298095703,0.07776673883199692,0.3720839321613312
1742766411563502600,1.754502685546875,11.608778953552246,-0.33918261528015137,-0.07178468257188797
1742766411565913000,1.7569130859375,10.432706832885742,-0.6035895347595215,-0.24167509377002716
1742766411568310300,1.759310302734375,8.053044319152832,0.07836493849754333,-0.04247260093688965
1742766411570694100,1.761694091796875,7.220940589904785,0.6945167779922485,-0.6089733839035034
1742766411573105000,1.76410498046875,8.625527381896973,0.26201409101486206,-0.4707878530025482
1742766411575502000,1.766502197265625,10.890932083129883,0.4145565330982208,-0.37028929591178894
1742766411577886000,1.768885986328125,11.271390914916992,0.641276478767395,-0.13698910176753998
1742766411580296700,1.771296630859375,9.46301555633545,0.3595215976238251,-0.10588239878416061
1742766411582694000,1.77369384765625,7.983652591705322,0.2512463629245758,-0.6221339106559753
1742766411585077800,1.776077880859375,7.843672752380371,0.3577269911766052,-0.37806597352027893
1742766411587488300,1.77848828125,9.288339614868164,0.544965386390686,-0.5186443328857422
1742766411589885700,1.7808857421875,9.65683364868164,0.617946445941925,-0.9050851464271545
1742766411592283000,1.783282958984375,10.051051139831543,0.48454657196998596,-1.0205388069152832
1742766411594680000,1.78568017578125,9.835099220275879,0.09212367236614227,-0.898504912853241
1742766411597077200,1.7880771484375,10.442875862121582,0.1453639715909958,-0.7902296781539917
1742766411599474400,1.790474365234375,10.794621467590332,0.019740786403417587,-0.4247260093688965
1742766411601872000,1.792871826171875,9.579665184020996,0.6789634227752686,0.07657032459974289
1742766411604269000,1.79526904296875,9.708877563476562,0.6586244106292725,-0.3044866919517517
1742766411606666200,1.797666259765625,10.693524360656738,0.062213387340307236,-0.6771687865257263
1742766411609063700,1.800063720703125,11.283953666687012,-0.052043892443180084,-0.2835494875907898
1742766411611460900,1.8024609375,10.153345108032227,-0.09212367236614227,-0.39541393518447876
1742766411613844700,1.8048447265625,8.73918628692627,-0.4540380835533142,-0.45104706287384033
1742766411616255200,1.807255126953125,10.322038650512695,-0.14656038582324982,-0.5054838061332703
1742766411618652700,1.809652587890625,11.877971649169922,-0.02512463741004467,-0.5276173949241638
1742766411621049900,1.8120498046875,10.680961608886719,-0.07178468257188797,-0.41096729040145874
1742766411623447000,1.814447021484375,8.414958953857422,0.2356930375099182,-0.3038884699344635
1742766411625844200,1.81684423828125,8.173283576965332,0.8207381963729858,-0.04366901144385338
1742766411628241700,1.81924169921875,9.390632629394531,0.397208571434021,-0.20997019112110138
1742766411630638800,1.821638916015625,9.239884376525879,0.1704886108636856,-0.7776673436164856
1742766411633036000,1.8240361328125,8.666205406188965,0.49710890650749207,-0.8225327730178833
1742766411635420000,1.826419921875,7.667799949645996,0.6107679605484009,-0.9146564602851868
1742766411637830700,1.82883056640625,8.199604988098145,0.6071787476539612,-0.9206385016441345
1742766411640227800,1.831227783203125,9.720842361450195,0.4331009089946747,-0.9822536706924438
1742766411642625000,1.833625,9.882357597351074,0.16331014037132263,-0.836291491985321
1742766411645022500,1.8360224609375,10.350752830505371,0.25363919138908386,-0.7136593461036682
1742766411647419600,1.838419677734375,11.041081428527832,0.6364908218383789,-0.6652047038078308
1742766411649816800,1.84081689453125,10.791629791259766,0.28534409403800964,-0.48035913705825806
1742766411652214000,1.843214111328125,10.37348461151123,0.3332005441188812,-0.48873403668403625
1742766411654611200,1.845611083984375,9.964311599731445,0.5341976284980774,-0.6969096064567566
1742766411657008600,1.848008544921875,9.77109146118164,0.6747759580612183,-0.5814558863639832
1742766411659405800,1.85040576171875,9.845269203186035,0.4893322288990021,-0.4821537733078003
1742766411661803000,1.852802978515625,9.759725570678711,-0.019740786403417587,-0.5659025311470032
1742766411664200400,1.855200439453125,10.259825706481934,-0.17587246000766754,-0.5437689423561096
1742766411666597600,1.85759765625,10.721639633178711,0.11844471842050552,-0.4624129831790924
1742766411668994800,1.859994873046875,10.334002494812012,0.04127619042992592,-0.0526420995593071
1742766411671392000,1.86239208984375,9.445069313049316,0.27696922421455383,0.2745763957500458
1742766411673789400,1.86478955078125,10.475777626037598,0.20099709928035736,-0.34217363595962524
1742766411676186600,1.8671865234375,10.627721786499023,-0.08015955984592438,-0.8015955686569214
1742766411678583800,1.869583740234375,9.347561836242676,-0.03349951654672623,-0.6173482537269592
1742766411680981000,1.87198095703125,7.809575080871582,-0.058624155819416046,-0.7902296781539917
1742766411683378400,1.87437841796875,8.827122688293457,0.2189432680606842,-0.890728235244751
1742766411685775600,1.876775634765625,10.883753776550293,0.9834501147270203,-1.0342975854873657
1742766411688172800,1.8791728515625,11.208579063415527,1.0947163105010986,-0.7824530005455017
1742766411690570200,1.8815703125,9.67777156829834,0.44027936458587646,-0.5437689423561096
1742766411692967400,1.883967529296875,9.139984130859375,0.50129634141922,-0.6478567123413086
1742766411695364600,1.886364501953125,8.547162055969238,0.41994038224220276,-0.8847461938858032
1742766411697761800,1.88876171875,8.21874713897705,0.17946170270442963,-1.0085747241973877
1742766411700159200,1.8911591796875,9.060422897338867,0.3326023519039154,-1.3046865463256836
1742766411702556400,1.893556396484375,10.62114143371582,0.44446679949760437,-1.3028919696807861
1742766411704953600,1.89595361328125,10.515857696533203,0.4504488706588745,-0.7890332937240601
1742766411707350800,1.898350830078125,9.934999465942383,0.5527420043945312,-0.6873382925987244
1742766411709748000,1.900748046875,9.1986083984375,0.4103690981864929,-0.3762713670730591
1742766411712145400,1.9031455078125,8.827122688293457,0.2679961323738098,-0.2763710021972656
1742766411714542600,1.90554248046875,9.032905578613281,0.2309073805809021,-0.8817551732063293
1742766411716939800,1.907939697265625,8.683553695678711,0.21714866161346436,-0.9002995491027832
1742766411719337200,1.910337158203125,9.334999084472656,0.25004997849464417,-0.27756741642951965
1742766411721734400,1.912734375,10.680363655090332,0.3936193287372589,-0.5084748268127441
1742766411724131600,1.915131591796875,11.121241569519043,-0.053240302950143814,-0.397208571434021
1742766411726528800,1.91752880859375,9.954142570495605,-0.21415762603282928,-0.1052841991186142
1742766411728926200,1.91992626953125,9.690333366394043,-0.1704886108636856,-0.008973085321485996
1742766411731323400,1.922323486328125,10.515857696533203,-0.3326023519039154,0.0687936544418335
1742766411733720600,1.924720458984375,11.12901782989502,-0.27756741642951965,-0.1178465187549591
1742766411736117800,1.92711767578125,11.097911834716797,0.29431718587875366,-0.5724828243255615
1742766411738515200,1.92951513671875,9.66102123260498,0.23629122972488403,-0.7022934556007385
1742766411740912400,1.931912353515625,9.869196891784668,0.45643091201782227,-0.5491527915000916
1742766411743296300,1.934296142578125,12.149557113647461,0.5144568681716919,-0.625723123550415
1742766411745707000,1.93670703125,12.008380889892578,-0.0891326442360878,-0.7668996453285217
1742766411748104200,1.939104248046875,9.808777809143066,-0.12203395366668701,-0.8709874153137207
1742766411750488000,1.941488037109375,8.434102058410645,0.2470589429140091,-0.7663014531135559
1742766411752898600,1.943898681640625,8.718847274780273,0.08853443711996078,-0.7441678643226624
1742766411755295700,1.946295654296875,11.60100269317627,0.2721835672855377,-0.8207381963729858
1742766411757679900,1.948679931640625,12.285947799682617,0.33738797903060913,-0.9314061999320984
1742766411760090400,1.95109033203125,9.993025779724121,0.08793623000383377,-0.7232306599617004
1742766411762487600,1.953487548828125,8.13260555267334,0.6101697683334351,-0.7112665176391602
1742766411764871400,1.955871337890625,7.987840175628662,0.7016952633857727,-0.3577269911766052
1742766411767282200,1.9582822265625,9.455238342285156,1.0163514614105225,-0.2069791555404663
1742766411769679400,1.960679443359375,10.496116638183594,0.9260223507881165,-0.8434699773788452
1742766411772076500,1.96307666015625,9.789037704467773,0.34277185797691345,-0.7782655358314514
1742766411774474000,1.965473876953125,8.861818313598633,0.16091732680797577,-0.5527420043945312
1742766411776871200,1.96787109375,8.919844627380371,0.10827522724866867,-0.4247260093688965
1742766411779268400,1.970268310546875,8.791230201721191,-0.3696911036968231,-0.050847481936216354
1742766411781665500,1.97266552734375,8.677571296691895,-0.05802594870328903,0.06520441919565201
1742766411784063000,1.97506298828125,8.516056060791016,0.22612173855304718,-0.08554340898990631
1742766411786460200,1.977460205078125,8.599804878234863,0.02871387079358101,-0.3248256742954254
1742766411788857300,1.979857421875,9.126225471496582,0.08255238085985184,-0.43968117237091064
1742766411791254500,1.982254638671875,10.079765319824219,0.49591249227523804,-0.3924229145050049
1742766411793652000,1.98465185546875,9.963115692138672,0.24287149310112,-0.3026920557022095
1742766411796049200,1.987049072265625,9.823135375976562,0.3086741268634796,-0.5210371017456055
1742766411798446300,1.9894462890625,10.378868103027344,0.2877369225025177,-0.8225327730178833
1742766411800843800,1.99184375,9.862018585205078,0.28115665912628174,-0.6502495408058167
1742766411803241000,1.994240966796875,9.336793899536133,0.4654040038585663,-0.6909275650978088
1742766411805638100,1.99663818359375,9.309874534606934,0.31405797600746155,-0.8249256014823914
1742766411808035300,1.999035400390625,9.470193862915039,0.13878370821475983,-0.5694918036460876
1742766411810432800,2.001432861328125,10.335797309875488,0.2883351147174835,-1.1174482107162476
1742766411812830000,2.003829833984375,11.124232292175293,0.5096712112426758,-0.8709874153137207
1742766411815227100,2.00622705078125,10.584650993347168,0.3026920557022095,-0.503689169883728
1742766411817624300,2.008624267578125,9.91705322265625,0.503689169883728,-0.3535395562648773
1742766411820021800,2.011021728515625,9.894919395446777,0.7597211599349976,-0.2715853750705719
1742766411822419000,2.0134189453125,10.063015937805176,0.7148557901382446,-0.39601215720176697
1742766411824816000,2.015816162109375,10.442875862121582,0.5389832854270935,-0.631106972694397
1742766411827213300,2.01821337890625,10.649256706237793,0.12203395366668701,-0.3858426511287689
1742766411829610800,2.02061083984375,10.229316711425781,-0.025722842663526535,-0.25244277715682983
1742766411832008000,2.023008056640625,10.544570922851562,0.049651071429252625,-0.31465616822242737
1742766411834405000,2.025405029296875,10.342377662658691,-0.26141586899757385,-0.33499518036842346
1742766411836802300,2.02780224609375,9.869196891784668,0.047258246690034866,-0.4085744619369507
1742766411839199700,2.03019970703125,9.732208251953125,0.2955136001110077,-0.9403793215751648
1742766411841597000,2.032596923828125,8.855836868286133,0.2554338276386261,-0.5521438121795654
1742766411843994000,2.034994140625,8.96530818939209,0.3074777126312256,-0.2667997181415558
1742766411846391600,2.0373916015625,9.203991889953613,0.3732803463935852,-0.5096712112426758
1742766411848788700,2.039788818359375,9.860223770141602,0.008973085321485996,-0.39421752095222473
1742766411851186000,2.04218603515625,10.095916748046875,0.33020952343940735,-0.4977070987224579
1742766411853583000,2.0445830078125,9.405587196350098,0.31046873331069946,-0.8967102766036987
1742766411855980500,2.04698046875,8.795417785644531,0.0771685317158699,-1.1485549211502075
1742766411858377700,2.049377685546875,8.769695281982422,0.2189432680606842,-1.057627558708191
1742766411860775000,2.05177490234375,9.061619758605957,0.2721835672855377,-0.6059823632240295
1742766411863172000,2.054172119140625,9.089137077331543,-0.037088751792907715,-0.40677985548973083
1742766411865569300,2.0565693359375,10.468599319458008,0.4013960063457489,-0.5318048596382141
1742766411867966700,2.058966796875,10.661819458007812,0.6562315821647644,-0.6598208546638489
1742766411870364000,2.061364013671875,9.390034675598145,0.4420739710330963,-0.5916253924369812
1742766411872761000,2.063760986328125,8.795417785644531,0.5006981492042542,-0.275174617767334
1742766411875158500,2.066158447265625,9.20578670501709,0.6442674994468689,-0.4181457459926605
1742766411877555700,2.0685556640625,9.522237777709961,0.6107679605484009,-0.6717849373817444
1742766411879953000,2.070952880859375,9.978070259094238,0.5635097622871399,-0.6777670383453369
1742766411882350000,2.07335009765625,9.68794059753418,0.013160524889826775,-0.5557330846786499
1742766411884747500,2.07574755859375,10.288538932800293,-0.1579262912273407,-0.20578274130821228
1742766411887131400,2.07813134765625,11.520842552185059,-0.19561325013637543,0.5048855543136597
1742766411889542000,2.0805419921875,12.358928680419922,-0.5653043389320374,0.1256231814622879
1742766411891939000,2.08293896484375,11.21934700012207,-0.6747759580612183,-0.4576273262500763
1742766411894336500,2.08533642578125,10.217950820922852,-0.28115665912628174,-0.4773681163787842
1742766411896733700,2.087733642578125,10.004989624023438,-0.06520441919565201,-0.4331009089946747
1742766411899131000,2.090130859375,11.267203330993652,0.1579262912273407,-0.5395814776420593
1742766411901528300,2.0925283203125,11.397014617919922,0.5330012440681458,-0.2476571500301361
1742766411903925500,2.094925537109375,8.874979019165039,0.6909275650978088,-0.10289137065410614
1742766411906322700,2.09732275390625,7.662416458129883,1.0977073907852173,-0.5168496966362
1742766411908706600,2.09970654296875,8.021339416503906,0.711864709854126,-0.3577269911766052
1742766411911117300,2.102117431640625,8.127222061157227,0.26620152592658997,-0.3888336718082428
1742766411913514500,2.104514404296875,7.802396297454834,0.14117653667926788,-0.7986045479774475
1742766411915898400,2.1068984375,7.5086774826049805,-0.129810631275177,-0.4701896607875824
1742766411918308900,2.109308837890625,8.00638484954834,-0.0933200865983963,-0.9523434042930603
1742766411920706000,2.1117060546875,8.83071231842041,0.7154539823532104,-1.3597214221954346
1742766411923103500,2.114103515625,9.45464038848877,1.0528420209884644,-0.8835497498512268
1742766411925500700,2.116500732421875,10.466206550598145,1.0396814346313477,-0.8380861282348633
1742766411927897900,2.11889794921875,11.114063262939453,0.989432156085968,-0.7782655358314514
1742766411930295300,2.12129541015625,10.179665565490723,0.5401797294616699,-0.4588237404823303
1742766411932692500,2.1236923828125,10.329216957092285,0.4331009089946747,-0.6269195079803467
1742766411935089700,2.126089599609375,12.141779899597168,0.35413774847984314,-0.8500502705574036
1742766411937473500,2.1284736328125,11.673385620117188,-0.15553347766399384,-0.623330295085907
1742766411939884300,2.13088427734375,8.96650505065918,-0.24107688665390015,-0.6604190468788147
1742766411942281500,2.133281494140625,7.51585578918457,0.08793623000383377,-0.3361915946006775
1742766411944678700,2.1356787109375,8.443074226379395,-0.0891326442360878,0.1178465187549591
1742766411947075800,2.138075927734375,9.138189315795898,-0.16031911969184875,-0.2841476798057556
1742766411949473300,2.140473388671875,9.524032592773438,0.020338991656899452,-0.46002015471458435
1742766411951870500,2.142870361328125,9.766305923461914,-0.15314064919948578,-0.37088751792907715
1742766411954267600,2.145267578125,10.582856178283691,-0.3762713670730591,-0.5886343717575073
1742766411956665000,2.1476650390625,11.276176452636719,-0.21714866161346436,-0.5509474277496338
1742766411959062300,2.150062255859375,10.253843307495117,-0.04905286431312561,-0.28594231605529785
1742766411961459500,2.15245947265625,9.358329772949219,0.6903293132781982,-0.7704889178276062
1742766411963856600,2.154856689453125,10.086943626403809,1.1072787046432495,-0.9655039310455322
1742766411966254000,2.157254150390625,9.55214786529541,0.9361918568611145,-1.0887342691421509
1742766411968651300,2.1596513671875,9.494720458984375,0.9056833982467651,-0.7938188910484314
1742766411971048400,2.16204833984375,10.105487823486328,0.7597211599349976,-0.7435696125030518
1742766411973445600,2.164445556640625,10.932208061218262,0.5126622319221497,-0.9942178130149841
1742766411975842800,2.1668427734375,11.023136138916016,0.537188708782196,-0.9326026439666748
1742766411978240300,2.169240234375,10.256834030151367,0.5138586759567261,-0.7262216806411743
1742766411980637400,2.171637451171875,10.247262954711914,0.5024927258491516,-0.4163511395454407
1742766411983034600,2.17403466796875,9.714262008666992,0.6197410821914673,-0.12921242415905
1742766411985432000,2.17643212890625,8.722436904907227,0.2231307178735733,-0.06699903309345245
1742766411987816000,2.17881591796875,7.579864025115967,-0.038285162299871445,-0.5994020700454712
1742766411990226400,2.181226318359375,8.564510345458984,0.18125630915164948,-0.5234299302101135
1742766411992623600,2.18362353515625,9.756135940551758,-0.07896314561367035,-0.0849452018737793
1742766411995007700,2.1860078125,11.037492752075195,-0.27397820353507996,-0.12203395366668701
1742766411997418200,2.188418212890625,10.687541961669922,-0.6197410821914673,-0.22791635990142822
1742766411999815400,2.1908154296875,9.990633010864258,-0.4737788736820221,-0.41096729040145874
1742766412002212600,2.193212646484375,8.704490661621094,0.11006984114646912,-0.267397940158844
1742766412004610000,2.195610107421875,8.25822925567627,0.5365904569625854,-0.11186445504426956
1742766412007007200,2.19800732421875,8.62193775177002,0.6275177597999573,-0.2309073805809021
1742766412009404400,2.200404296875,10.415956497192383,0.8386843204498291,-0.6963114142417908
1742766412011801900,2.2028017578125,10.463813781738281,0.8159525394439697,-0.7728816866874695
1742766412014199000,2.205198974609375,8.509475708007812,0.36670008301734924,-0.6753742098808289
1742766412016583000,2.2075830078125,8.145766258239746,0.2955136001110077,-0.6035895347595215
1742766412018993400,2.209993408203125,10.220343589782715,0.30927231907844543,-0.7226324677467346
1742766412021390800,2.212390869140625,10.846665382385254,0.05503492057323456,-0.7537391185760498
1742766412023788000,2.2147880859375,9.315258979797363,-0.11425728350877762,-0.5748756527900696
1742766412026185200,2.217185302734375,7.977670669555664,-0.08255238085985184,-0.3236292600631714
1742766412028582400,2.21958251953125,8.291728973388672,0.09870393574237823,-0.7525427341461182
1742766412030979600,2.2219794921875,10.39083194732666,0.46420758962631226,-0.9978070259094238
1742766412033377000,2.224376953125,11.563315391540527,0.6610172390937805,-0.5856433510780334
1742766412035774200,2.226774169921875,10.784451484680176,0.4701896607875824,-0.37507495284080505
1742766412038171400,2.22917138671875,9.497113227844238,0.7184450030326843,-0.3798605799674988
1742766412040568800,2.23156884765625,9.93380355834961,0.7166503667831421,-0.12861421704292297
1742766412042966000,2.233966064453125,10.298110008239746,0.6753742098808289,-0.529412031173706
1742766412045363200,2.23636328125,9.814760208129883,0.623330295085907,-0.7387840151786804
1742766412047760400,2.238760498046875,8.445467948913574,0.5162515044212341,-0.3409772217273712
1742766412050157800,2.24115771484375,8.577073097229004,0.3236292600631714,-0.5419743061065674
1742766412052555000,2.243554931640625,9.836894035339355,-0.06580262631177902,-0.5994020700454712
1742766412054952200,2.2459521484375,10.03310489654541,-0.41156548261642456,-0.3397808074951172
1742766412057349400,2.248349365234375,9.322437286376953,-0.3152543902397156,-0.2949153780937195
1742766412059746800,2.250746826171875,8.995817184448242,0.14656038582324982,-0.24406790733337402
1742766412062144000,2.25314404296875,8.531010627746582,0.16929219663143158,-0.08554340898990631
1742766412064541200,2.255541259765625,9.244071960449219,0.24526432156562805,-0.44386860728263855
1742766412066938600,2.257938720703125,10.3890380859375,0.6610172390937805,-0.3206382393836975
1742766412069335800,2.260335693359375,10.334601402282715,0.4085744619369507,-0.34576287865638733
1742766412071733000,2.26273291015625,8.867202758789062,0.4941178858280182,-0.7184450030326843
1742766412074130200,2.265130126953125,9.751350402832031,0.7280163168907166,-0.8237292170524597
1742766412076527400,2.26752734375,11.182856559753418,0.41096729040145874,-0.9332008361816406
1742766412078924800,2.2699248046875,10.833504676818848,-0.06161518394947052,-1.306481122970581
1742766412081322000,2.272322021484375,9.16869831085205,0.07537391036748886,-0.8877372145652771
1742766412083719200,2.27471923828125,7.785646915435791,0.3314059376716614,-0.8787640929222107
1742766412086116400,2.277116455078125,9.311071395874023,0.623330295085907,-0.8662018179893494
1742766412088500500,2.27950048828125,11.911471366882324,0.3888336718082428,-0.6161518096923828
1742766412090911000,2.281910888671875,11.863016128540039,0.07357929646968842,-0.35533416271209717
1742766412093308200,2.28430810546875,10.146764755249023,0.07417750358581543,-0.48035913705825806
1742766412095705600,2.28670556640625,8.804390907287598,0.13040883839130402,-0.31046873331069946
1742766412098102800,2.289102783203125,8.606983184814453,0.21774685382843018,-0.20458634197711945
1742766412100500000,2.2915,10.397412300109863,0.3529413342475891,-0.4983053207397461
1742766412102897200,2.293897216796875,10.752148628234863,0.39062830805778503,-0.6424728631973267
1742766412105294600,2.296294677734375,10.066604614257812,0.3768695592880249,-0.3403790295124054
1742766412107691800,2.29869189453125,9.512067794799805,0.23688943684101105,-0.09690931439399719
1742766412110089000,2.3010888671875,9.483354568481445,-0.18125630915164948,-0.18484555184841156
1742766412112486100,2.303486083984375,9.129216194152832,-0.22193430364131927,-0.4127618968486786
1742766412114883600,2.305883544921875,8.807381629943848,0.2871387302875519,-0.31405797600746155
1742766412117280800,2.30828076171875,8.925228118896484,0.4827519655227661,-0.22791635990142822
1742766412119678000,2.310677978515625,10.300503730773926,0.4707878530025482,-0.6029912829399109
1742766412122075400,2.313075439453125,11.079965591430664,0.5886343717575073,-0.48454657196998596
1742766412124472600,2.31547265625,9.728020668029785,0.25064817070961,-0.5401797294616699
1742766412126869800,2.317869873046875,8.164909362792969,-0.10289137065410614,-0.6149554252624512
1742766412129267000,2.320266845703125,9.212367057800293,0.04127619042992592,-0.6215356588363647
1742766412131664100,2.3226640625,9.385847091674805,-0.03170489892363548,-0.7938188910484314
1742766412134061600,2.3250615234375,9.705288887023926,0.13220344483852386,-0.6604190468788147
1742766412136458800,2.327458740234375,10.001998901367188,0.17946170270442963,-0.8560323119163513
1742766412138856000,2.32985595703125,9.619147300720215,0.12681959569454193,-0.6598208546638489
1742766412141253400,2.33225341796875,9.79801082611084,0.4205385744571686,-0.19202402234077454
1742766412143650600,2.334650634765625,10.805987358093262,0.7316055297851562,-0.18305093050003052
1742766412146047700,2.3370478515625,10.462616920471191,0.5461617708206177,-0.1453639715909958
1742766412148445000,2.33944482421875,9.594620704650879,0.6131607890129089,-0.10468599200248718
1742766412150842400,2.34184228515625,9.350552558898926,0.5353940725326538,-0.3236292600631714
1742766412153239600,2.344239501953125,10.472786903381348,0.4815555512905121,-0.4169493317604065
1742766412155636700,2.34663671875,10.465009689331055,0.3164508044719696,-0.7513462901115417
1742766412158034000,2.349033935546875,9.5862455368042,0.05563312768936157,-0.7459624409675598
1742766412160431400,2.351431396484375,10.286744117736816,-0.03768695518374443,-0.5288137793540955
1742766412162828500,2.35382861328125,11.421540260314941,-0.32183465361595154,-0.1423729509115219
1742766412165225700,2.356225830078125,12.026326179504395,-0.8009973764419556,-0.003589233849197626
1742766412167623200,2.358623046875,11.192427635192871,-0.8333004713058472,-0.13998012244701385
1742766412170020400,2.361020263671875,10.432706832885742,-0.2183450609445572,-0.2350948303937912
1742766412172417500,2.36341748046875,9.527023315429688,0.20039889216423035,-0.4307080805301666
1742766412174814700,2.365814697265625,10.03310489654541,0.39601215720176697,-0.46899324655532837
1742766412177212200,2.368212158203125,11.10030460357666,0.908674418926239,-0.8733802437782288
1742766412179609300,2.370609375,10.631311416625977,0.8225327730178833,-0.7208378314971924
1742766412182006500,2.373006591796875,9.587442398071289,0.8153542876243591,-0.6472585201263428
1742766412184403700,2.37540380859375,8.831908226013184,0.6658028960227966,-0.7980063557624817
1742766412186801000,2.37780078125,8.298309326171875,0.3367897868156433,-0.9128618240356445
1742766412189198300,2.3801982421875,8.660821914672852,0.10648060590028763,-0.582054078578949
1742766412191595500,2.382595458984375,8.580063819885254,0.06759724020957947,-0.5964110493659973
1742766412193992700,2.38499267578125,7.3878397941589355,-0.014955141581594944,-0.8697910308837891
1742766412196376600,2.38737646484375,6.507281303405762,0.6825526356697083,-0.6406782865524292
1742766412198787300,2.389787353515625,7.633702278137207,1.1114661693572998,-0.44027936458587646
1742766412201184500,2.3921845703125,9.22253704071045,0.8452646136283875,-0.7603194117546082
1742766412203581700,2.394581787109375,10.022337913513184,0.47258245944976807,-0.6209374666213989
1742766412205979100,2.396979248046875,10.17009449005127,0.5413761138916016,-0.7160521745681763
1742766412208376300,2.399376220703125,10.084550857543945,0.47796630859375,-0.5736792087554932
1742766412210760200,2.40176025390625,10.813763618469238,0.4181457459926605,-0.35114672780036926
1742766412213170700,2.404170654296875,11.653644561767578,0.3026920557022095,-0.10169496387243271
1742766412215568100,2.406568115234375,11.23190975189209,-0.09631111472845078,-0.059820566326379776
1742766412217965300,2.40896533203125,9.672985076904297,-0.34576287865638733,-0.08614161610603333
1742766412220362500,2.411362548828125,8.058428764343262,-0.4414757788181305,-0.6263213157653809
1742766412222760000,2.413760009765625,7.1162543296813965,-0.20099709928035736,-0.3415754437446594
1742766412225143600,2.4161435546875,7.883154392242432,0.22911277413368225,-0.23629122972488403
1742766412227554300,2.41855419921875,10.361519813537598,0.1585244983434677,-0.6472585201263428
1742766412229951500,2.420951416015625,12.09033489227295,-0.13160525262355804,-0.6909275650978088
1742766412232335400,2.42333544921875,11.95334529876709,0.08853443711996078,-0.3840480446815491
1742766412234746000,2.42574609375,9.942177772521973,-0.04785645380616188,-0.2183450609445572
1742766412237143300,2.428143310546875,9.473783493041992,0.25244277715682983,-0.49172505736351013
1742766412239540500,2.43054052734375,10.408778190612793,0.6161518096923828,-0.8685946464538574
1742766412241937700,2.432937744140625,10.479965209960938,0.623330295085907,-1.1114661693572998
1742766412244335000,2.435335205078125,10.587043762207031,0.5048855543136597,-1.0600204467773438
1742766412246732300,2.437732177734375,10.983654022216797,0.6352944374084473,-1.4793626070022583
1742766412249129500,2.44012939453125,10.621739387512207,0.7734799385070801,-1.4775680303573608
1742766412251527000,2.44252685546875,10.365707397460938,1.0139585733413696,-0.7190431952476501
1742766412253910800,2.444910888671875,11.754142761230469,1.150349497795105,-0.2548356056213379
1742766412256321300,2.4473212890625,11.022537231445312,0.6346961855888367,-0.37926238775253296
1742766412258718500,2.449718505859375,8.896514892578125,0.46420758962631226,-0.40378883481025696
1742766412261102300,2.452102294921875,7.287939548492432,0.2967100143432617,-0.706480860710144
1742766412263513000,2.45451318359375,8.065607070922852,-0.24167509377002716,-0.6203392744064331
1742766412265910300,2.45691015625,9.275776863098145,-0.4486542344093323,-0.2667997181415558
1742766412268307500,2.459307373046875,9.379266738891602,-0.2763710021972656,-0.3517449200153351
1742766412270705000,2.461704833984375,8.94377326965332,-0.30209386348724365,0.020338991656899452
1742766412273102000,2.46410205078125,9.460622787475586,-0.25782662630081177,-0.0568295381963253
1742766412275499300,2.466499267578125,9.05563735961914,-0.45942193269729614,-0.5952146053314209
1742766412277896400,2.468896484375,8.055437088012695,-0.17288143932819366,-0.20039889216423035
1742766412280294000,2.4712939453125,8.70628547668457,0.37926238775253296,0.019740786403417587
1742766412282677800,2.473677734375,11.187642097473145,0.4223332107067108,-0.37148571014404297
1742766412285088300,2.476088134765625,11.773285865783691,-0.10707881301641464,-0.589830756187439
1742766412287485400,2.4784853515625,9.663414001464844,0.04247260093688965,-0.7938188910484314
1742766412289883000,2.4808828125,8.47896671295166,0.5419743061065674,-0.6550351977348328
1742766412292280000,2.483280029296875,8.812766075134277,0.6406782865524292,-0.6556333899497986
1742766412294677200,2.48567724609375,9.65384292602539,0.4408775866031647,-0.7441678643226624
1742766412297074400,2.488074462890625,9.70349407196045,0.2835494875907898,-0.5641079545021057
1742766412299472000,2.490471923828125,9.978070259094238,0.1453639715909958,-0.7746763229370117
1742766412301869000,2.492869140625,10.372885704040527,-0.05742774158716202,-1.1288141012191772
1742766412304266200,2.495266357421875,9.969097137451172,-0.30927231907844543,-1.0295119285583496
1742766412306663700,2.49766357421875,10.107880592346191,0.13639089465141296,-0.5605186820030212
1742766412309060900,2.500060791015625,11.23609733581543,0.37447673082351685,-0.1860419660806656
1742766412311458000,2.5024580078125,10.48953628540039,0.2566302418708801,-0.004187439568340778
1742766412313855200,2.504855224609375,9.869794845581055,0.44446679949760437,-0.05383851006627083
1742766412316252700,2.507252685546875,9.963713645935059,0.5533402562141418,-0.7250252366065979
1742766412318649900,2.50964990234375,10.646265983581543,0.357128769159317,-0.8656035661697388
1742766412321047000,2.512047119140625,12.326027870178223,0.6029912829399109,-0.6735795736312866
1742766412323444200,2.5144443359375,12.011371612548828,0.48035913705825806,-0.6969096064567566
1742766412325841700,2.516841552734375,10.870593070983887,0.07178468257188797,-0.25782662630081177
1742766412328238800,2.51923876953125,10.912467956542969,0.20398813486099243,-0.005383851006627083
1742766412330636000,2.521635986328125,10.189236640930176,0.15553347766399384,-0.42293140292167664
1742766412333020000,2.52402001953125,7.500302791595459,-0.23389841616153717,-0.5377869009971619
1742766412335430700,2.5264306640625,6.044270038604736,0.11126625537872314,-0.6089733839035034
1742766412337827800,2.528827880859375,7.339385032653809,0.47976094484329224,-0.22911277413368225
1742766412340225000,2.53122509765625,9.072386741638184,0.1788634955883026,0.06999006122350693
1742766412342622200,2.533622314453125,9.001798629760742,0.05802594870328903,-0.5970092415809631
1742766412345019600,2.53601953125,8.770891189575195,0.09511470049619675,-0.9391828775405884
1742766412347416800,2.538416748046875,8.431708335876465,0.4660021960735321,-0.7938188910484314
1742766412349814000,2.54081396484375,10.009775161743164,0.7411768436431885,-1.0857433080673218
1742766412352211200,2.543211181640625,11.569297790527344,0.5419743061065674,-0.6813562512397766
1742766412354595300,2.54559521484375,11.043475151062012,0.4325026869773865,-0.8141579031944275
1742766412357005800,2.548005859375,10.973484992980957,0.6711867451667786,-1.1599208116531372
1742766412359403000,2.550403076171875,9.89432144165039,0.3690928816795349,-1.1066805124282837
1742766412361800400,2.552800537109375,9.202198028564453,0.5072783827781677,-0.7902296781539917
1742766412364197600,2.55519775390625,9.8267240524292,0.8033902049064636,-0.6095715761184692
1742766412366594800,2.5575947265625,9.067601203918457,0.5700899958610535,-0.21355941891670227
1742766412368992000,2.559991943359375,9.123832702636719,0.26620152592658997,-0.243469700217247
1742766412371389400,2.562389404296875,9.235696792602539,0.1495514214038849,-0.3678964674472809
1742766412373786600,2.56478662109375,8.836095809936523,-0.12622138857841492,-0.18783657252788544
1742766412376183800,2.567183837890625,10.470992088317871,0.21954147517681122,-0.2847459018230438
1742766412378581000,2.5695810546875,11.80020523071289,0.09152546525001526,-0.2554338276386261
1742766412380978400,2.571978515625,10.904690742492676,-0.3433700501918793,0.20578274130821228
1742766412383375600,2.574375732421875,9.982855796813965,-0.22791635990142822,-0.12442677468061447
1742766412385772800,2.576772705078125,9.609575271606445,0.14117653667926788,-0.7172485589981079
1742766412388170000,2.579169921875,9.20159912109375,0.1495514214038849,-0.4773681163787842
1742766412390567400,2.5815673828125,8.783453941345215,0.2787638306617737,-0.6191428303718567
1742766412392964600,2.583964599609375,10.972886085510254,0.3720839321613312,-0.31405797600746155
1742766412395361800,2.58636181640625,12.362518310546875,-0.0364905446767807,-0.06699903309345245
1742766412397745700,2.58874560546875,11.586047172546387,0.32303106784820557,-0.5246263742446899
1742766412400156400,2.591156494140625,9.871589660644531,0.2476571500301361,-0.5982056856155396
1742766412402553600,2.5935537109375,9.150154113769531,0.4462614357471466,-1.0809576511383057
1742766412404950800,2.59595068359375,10.271191596984863,0.8548358678817749,-1.3668999671936035
1742766412407348000,2.598347900390625,10.331609725952148,0.6580262184143066,-0.8638089895248413
1742766412409745400,2.600745361328125,10.295119285583496,0.06819544732570648,-0.7806583642959595
1742766412412142600,2.603142578125,11.139785766601562,-0.024526432156562805,-1.3543375730514526
1742766412414539800,2.605539794921875,10.098309516906738,-0.29371899366378784,-1.0295119285583496
1742766412416937200,2.607937255859375,7.868797302246094,0.25304099917411804,-0.26919254660606384
1742766412419321000,2.610321044921875,8.356932640075684,0.6807580590248108,-0.10169496387243271
1742766412421731600,2.612731689453125,9.481559753417969,0.43968117237091064,0.14656038582324982
1742766412424128800,2.615128662109375,10.484750747680664,0.26560330390930176,0.010169495828449726
1742766412426526200,2.617526123046875,9.714859962463379,0.11844471842050552,-0.755533754825592
1742766412428923400,2.61992333984375,8.812167167663574,-0.13280165195465088,-0.8691928386688232
1742766412431320600,2.622320556640625,9.124430656433105,0.6131607890129089,-1.0606186389923096
1742766412433717800,2.6247177734375,10.433902740478516,0.9385846853256226,-0.6197410821914673
1742766412436115200,2.627115234375,11.58126163482666,0.35413774847984314,-0.06340979784727097
1742766412438512400,2.629512451171875,11.997612953186035,0.008374879136681557,-0.3655036687850952
1742766412440909600,2.63190966796875,10.15573787689209,-0.28235307335853577,-0.2871387302875519
1742766412443306800,2.634306640625,8.2695951461792,-0.44327038526535034,0.3068794906139374
1742766412445704200,2.6367041015625,9.106484413146973,-0.26201409101486206,0.04905286431312561
1742766412448101400,2.639101318359375,10.840682983398438,-0.20458634197711945,-0.19740787148475647
1742766412450498600,2.64149853515625,9.53659439086914,-0.22612173855304718,-0.5808576941490173
1742766412452895700,2.643895751953125,8.58185863494873,0.33738797903060913,-0.39900317788124084
1742766412455293200,2.646293212890625,9.079565048217773,0.37148571014404297,-0.4570291340351105
1742766412457690400,2.6486904296875,9.989436149597168,0.4486542344093323,-0.6113662123680115
1742766412460087600,2.651087646484375,9.68494987487793,0.646660327911377,-0.857228696346283
1742766412462485000,2.653485107421875,9.575477600097656,0.5832505226135254,-0.8386843204498291
1742766412464882200,2.655882080078125,10.238289833068848,0.04426721855998039,-0.8949156403541565
1742766412467279400,2.658279296875,11.093125343322754,0.2871387302875519,-1.0671988725662231
1742766412469676500,2.660676513671875,9.522835731506348,0.5491527915000916,-0.833898663520813
1742766412472074000,2.663073974609375,7.400402069091797,0.9655039310455322,-0.2835494875907898
1742766412474471200,2.66547119140625,8.444271087646484,1.059422254562378,-0.6574280261993408
1742766412476868400,2.667868408203125,9.660423278808594,0.7136593461036682,-0.99481600522995
1742766412479265500,2.670265625,9.558130264282227,0.45942193269729614,-0.8297112584114075
1742766412481663000,2.6726630859375,9.440881729125977,0.5587241053581238,-1.0474581718444824
1742766412484060200,2.67506005859375,9.8871431350708,0.1860419660806656,-0.5653043389320374
1742766412486457300,2.677457275390625,11.006385803222656,0.3445664644241333,-0.37148571014404297
1742766412488854500,2.6798544921875,12.283555030822754,0.1579262912273407,-0.15134602785110474
1742766412491238400,2.68223828125,11.765508651733398,-0.6933203339576721,-0.2309073805809021
1742766412493649200,2.684649169921875,10.275378227233887,-0.6741777658462524,-0.6418746709823608
1742766412496046300,2.68704638671875,7.931010723114014,-0.17108681797981262,-0.8147560954093933
1742766412498430200,2.68943017578125,6.535397052764893,-0.06041877344250679,-0.2584248483181
1742766412500841000,2.691841064453125,9.364311218261719,0.18424734473228455,-0.363709032535553
1742766412503238100,2.694238037109375,13.25563907623291,0.20817556977272034,-0.6011967062950134
1742766412505622000,2.6966220703125,12.8691987991333,0.02392822690308094,-0.615553617477417
1742766412508032500,2.699032470703125,10.958529472351074,0.372682124376297,-0.3756731450557709
1742766412510430000,2.701429931640625,10.445268630981445,0.3690928816795349,-0.7986045479774475
1742766412512827100,2.7038271484375,11.078768730163574,0.31345975399017334,-0.719641387462616
1742766412515224300,2.706224365234375,10.697113990783691,0.5694918036460876,-1.3310075998306274
1742766412517621800,2.708621826171875,9.162117958068848,0.6293123364448547,-1.412961721420288
1742766412520005400,2.71100537109375,8.715856552124023,0.7268198728561401,-0.9643075466156006
1742766412522416000,2.713416015625,9.143573760986328,0.9888339638710022,-1.2113664150238037
1742766412524813300,2.715813232421875,8.204988479614258,0.5126622319221497,-1.1928220987319946
1742766412527197200,2.718197265625,7.94716215133667,0.46420758962631226,-0.5443671345710754
1742766412529608000,2.72060791015625,9.138189315795898,0.6843472719192505,-0.10348957777023315
1742766412532005000,2.723005126953125,9.44028377532959,0.6729813814163208,-0.03768695518374443
1742766412534402300,2.72540234375,9.750154495239258,0.4175475537776947,-0.6777670383453369
1742766412536799700,2.7277998046875,9.91705322265625,0.4498506486415863,-1.0061819553375244
1742766412539197000,2.730197021484375,10.587043762207031,0.10049854964017868,-0.9762716293334961
1742766412541594000,2.732593994140625,10.289137840270996,0.17766708135604858,-0.8709874153137207
1742766412543991300,2.7349912109375,10.216754913330078,0.23210379481315613,-0.48394837975502014
1742766412546388700,2.737388671875,10.189236640930176,0.1178465187549591,-0.4989035129547119
1742766412548786000,2.739785888671875,9.991230964660645,-0.13100704550743103,-0.5814558863639832
1742766412551183000,2.74218310546875,9.432506561279297,-0.31764721870422363,-0.4995017349720001
1742766412553580300,2.744580322265625,8.855836868286133,-0.5312066078186035,0.15732808411121368
1742766412555977700,2.746977783203125,9.118449211120605,-0.06819544732570648,0.18305093050003052
1742766412558375000,2.749375,9.452845573425293,-0.038285162299871445,-0.3314059376716614
1742766412560772000,2.751772216796875,8.464012145996094,-0.251844584941864,-0.6352944374084473
1742766412563156000,2.754156005859375,7.868797302246094,0.2069791555404663,-0.5359922647476196
1742766412565566700,2.756566650390625,8.708678245544434,0.5401797294616699,-0.7507480978965759
1742766412567964000,2.7589638671875,10.168299674987793,0.6789634227752686,-0.5868397355079651
1742766412570361000,2.761361083984375,10.50090217590332,0.9260223507881165,-0.833898663520813
1742766412572758500,2.763758544921875,9.223134994506836,0.7896314859390259,-1.0031908750534058
1742766412575155700,2.76615576171875,8.424530029296875,0.21176479756832123,-1.2329018115997314
1742766412577553000,2.768552978515625,10.328021049499512,0.527019202709198,-1.373480200767517
1742766412579950000,2.7709501953125,11.061420440673828,0.5551348328590393,-0.6610172390937805
1742766412582347500,2.773347412109375,10.84427261352539,0.735194742679596,0.054436713457107544
1742766412584744700,2.77574462890625,10.870593070983887,0.9032905697822571,-0.23030917346477509
1742766412587142000,2.778141845703125,10.501500129699707,0.47258245944976807,-0.5264210104942322
1742766412589539000,2.7805390625,10.834700584411621,-0.1256231814622879,-0.7357929348945618
1742766412591936500,2.7829365234375,10.302896499633789,-0.19262222945690155,-0.9248259663581848
1742766412594333700,2.785333740234375,9.778867721557617,-0.4139583110809326,-0.4911268353462219
1742766412596731000,2.78773095703125,9.70229721069336,0.4211367964744568,-0.4295116662979126
1742766412599128000,2.790128173828125,10.53918743133545,0.5413761138916016,0.03529413416981697
1742766412601525500,2.792525390625,11.138589859008789,-0.26500511169433594,0.2153540402650833
1742766412603922700,2.794922607421875,11.330015182495117,-0.6975077986717224,-0.30568310618400574
1742766412606319900,2.79731982421875,9.079565048217773,-0.44446679949760437,-0.6711867451667786
1742766412608717000,2.799717041015625,6.249454498291016,-0.21296121180057526,-0.8207381963729858
1742766412611114500,2.802114501953125,6.314659118652344,0.36311084032058716,-0.9320043921470642
1742766412613511700,2.80451171875,9.887741088867188,0.9409775137901306,-0.4085744619369507
1742766412615908900,2.806908935546875,11.622537612915039,0.9116654396057129,-0.29371899366378784
1742766412618306000,2.80930615234375,10.678568840026855,0.9361918568611145,-0.6011967062950134
1742766412620690000,2.81168994140625,7.59362268447876,0.3966103494167328,-1.058824062347412
1742766412623100700,2.8141005859375,5.535795211791992,0.15493527054786682,-0.8979067206382751
1742766412625497900,2.816497802734375,6.623931407928467,0.5138586759567261,-0.9511470198631287
1742766412627895300,2.818895263671875,9.933204650878906,0.7345965504646301,-0.8530412912368774
1742766412630292500,2.82129248046875,11.859427452087402,0.357128769159317,-1.054038405418396
1742766412632689700,2.823689697265625,11.12602710723877,0.3415754437446594,-1.466800332069397
1742766412635086800,2.8260869140625,9.141180992126465,-0.019142581149935722,-1.0121639966964722
1742766412637484000,2.828484130859375,8.608179092407227,0.12023933976888657,-0.6293123364448547
1742766412639881500,2.830881591796875,9.126823425292969,0.4013960063457489,-0.6005984544754028
1742766412642278700,2.833278564453125,9.763314247131348,0.5210371017456055,-0.381655216217041
1742766412644675800,2.83567578125,9.983454704284668,0.5527420043945312,-0.5198407173156738
1742766412647073000,2.838072998046875,9.934401512145996,0.6011967062950134,-0.8009973764419556
1742766412649470500,2.840470458984375,9.723833084106445,0.2267199456691742,-0.4737788736820221
1742766412651867600,2.84286767578125,9.716055870056152,0.0729810893535614,-0.13160525262355804
1742766412654264800,2.845264892578125,10.949556350708008,-0.10408778488636017,-0.08315058797597885
1742766412656662300,2.847662353515625,10.417153358459473,-0.5258227586746216,-0.5168496966362
1742766412659059500,2.8500595703125,8.035696983337402,-0.5222335457801819,-0.5694918036460876
1742766412661456600,2.85245654296875,7.499704360961914,0.2584248483181,-0.23988047242164612
1742766412663853800,2.854853759765625,9.118449211120605,0.3314059376716614,0.11844471842050552
1742766412666251300,2.857251220703125,10.834102630615234,0.3409772217273712,-0.09990034252405167
1742766412668648400,2.8596484375,11.352746963500977,0.22492532432079315,-0.38225340843200684
1742766412671045600,2.862045654296875,9.88415241241455,0.028115665540099144,-0.31824541091918945
1742766412673442800,2.86444287109375,9.548559188842773,0.04905286431312561,-0.46480581164360046
1742766412675840300,2.86684033203125,10.617551803588867,0.3577269911766052,-1.0325030088424683
1742766412678237400,2.869237548828125,10.839486122131348,0.706480860710144,-0.8883354067802429
1742766412680634600,2.871634521484375,10.657033920288086,1.0582258701324463,-1.342971682548523
1742766412683032000,2.874031982421875,10.000802040100098,0.6586244106292725,-1.6289139986038208
1742766412685429200,2.87642919921875,9.68375301361084,-0.0933200865983963,-1.2035897970199585
1742766412687826400,2.878826416015625,10.282557487487793,-0.08434699475765228,-0.786640465259552
1742766412690223600,2.8812236328125,10.482955932617188,0.0023928226437419653,-0.5910272002220154
1742766412692620800,2.883620849609375,9.5862455368042,0.10049854964017868,-0.27397820353507996
1742766412695018200,2.886018310546875,8.303094863891602,0.39541393518447876,-0.24586252868175507
1742766412697415400,2.88841552734375,8.23130989074707,0.3762713670730591,-0.4408775866031647
1742766412699812600,2.8908125,9.492925643920898,-0.1788634955883026,-0.6376872062683105
1742766412702209800,2.893209716796875,10.26042366027832,-0.26440688967704773,-0.9158528447151184
1742766412704607200,2.895607177734375,9.806385040283203,-0.32662028074264526,-0.7770691514015198
1742766412707004400,2.89800439453125,8.499305725097656,0.019142581149935722,-0.582054078578949
1742766412709401600,2.900401611328125,10.242477416992188,0.5306084156036377,-0.3397808074951172
1742766412711799000,2.902799072265625,12.679567337036133,0.29850462079048157,0.11964113265275955
1742766412714183000,2.905182861328125,12.049057960510254,-0.2584248483181,-0.06281159073114395
1742766412716593400,2.907593505859375,9.384052276611328,-0.2757728099822998,-0.4899304509162903
1742766412718990600,2.909990478515625,7.063014030456543,-0.14356936514377594,-0.5455635786056519
1742766412721374500,2.91237451171875,7.232306480407715,0.5431707501411438,-0.747757077217102
1742766412723785200,2.91478515625,10.02173900604248,0.9529415965080261,-0.5563312768936157
1742766412726182400,2.917182373046875,11.733803749084473,0.389431893825531,-0.17288143932819366
1742766412728566300,2.919566162109375,11.752347946166992,0.030508488416671753,-0.6131607890129089
1742766412730977000,2.92197705078125,9.189635276794434,-0.0568295381963253,-1.00259268283844
1742766412733374200,2.924374267578125,6.754340171813965,-0.37866419553756714,-0.7322037220001221
1742766412735758000,2.926758056640625,8.105088233947754,0.058624155819416046,-0.7854440212249756
1742766412738168600,2.92916845703125,10.954939842224121,0.19561325013637543,-1.1198409795761108
1742766412740566000,2.93156591796875,10.971092224121094,0.07597211748361588,-0.8536394834518433
1742766412742963200,2.933963134765625,9.452247619628906,0.4295116662979126,-0.8530412912368774
1742766412745360400,2.9363603515625,7.609176158905029,0.7238288521766663,-0.8428717851638794
1742766412747757600,2.938757568359375,7.105486869812012,0.722034215927124,-0.6658028960227966
1742766412750155000,2.941155029296875,8.391031265258789,1.0582258701324463,-0.4995017349720001
1742766412752552200,2.94355224609375,9.54915714263916,0.8141579031944275,-0.4893322288990021
1742766412754949400,2.945949462890625,10.088738441467285,0.5162515044212341,-0.6879364848136902
1742766412757346600,2.9483466796875,10.13479995727539,0.6795616149902344,-0.7962117195129395
1742766412759744000,2.950743896484375,9.748359680175781,0.5491527915000916,-0.4007977843284607
1742766412762141200,2.95314111328125,10.024730682373047,0.3086741268634796,-0.13100704550743103
1742766412764525000,2.955525146484375,11.169695854187012,-0.10169496387243271,-0.07417750358581543
1742766412766935800,2.957935791015625,10.73420238494873,-0.5467599630355835,-0.34636107087135315
1742766412769333000,2.9603330078125,9.167501449584961,-0.6299105882644653,-0.5102694034576416
1742766412771716900,2.962716796875,7.930412292480469,-0.12502498924732208,-0.4905286431312561
1742766412774127400,2.96512744140625,8.37428092956543,0.031106693670153618,-0.39062830805778503
1742766412776524800,2.96752490234375,10.076175689697266,0.364905446767807,-0.7740781307220459
1742766412778908700,2.96990869140625,10.962717056274414,0.397208571434021,-0.6424728631973267
1742766412781319200,2.972319091796875,10.814361572265625,0.004785645287483931,-0.3152543902397156
1742766412783716400,2.97471630859375,9.930213928222656,-0.2356930375099182,-0.6675975322723389
1742766412786113800,2.97711376953125,9.78245735168457,0.0729810893535614,-0.9320043921470642
1742766412788511000,2.979510986328125,9.80399227142334,0.2871387302875519,-1.0019944906234741
1742766412790908200,2.981908203125,10.459028244018555,0.8225327730178833,-1.1676974296569824
1742766412793292000,2.9842919921875,12.147164344787598,0.698704183101654,-1.2957134246826172
1742766412795702800,2.986702880859375,11.650653839111328,0.5324030518531799,-1.4333007335662842
1742766412798100000,2.989099853515625,10.268798828125,0.6921239495277405,-1.1060823202133179
1742766412800497200,2.9914970703125,9.396016120910645,0.7698906660079956,-0.527019202709198
1742766412802894300,2.993894287109375,9.301499366760254,0.6496513485908508,-0.3846462368965149
1742766412805291800,2.996291748046875,9.79801082611084,0.8273184299468994,-0.6520441770553589
1742766412807689000,2.99868896484375,10.27059268951416,0.5647061467170715,-0.33020952343940735
1742766412810086100,3.001086181640625,10.386046409606934,0.0729810893535614,-0.5814558863639832
1742766412812483600,3.003483642578125,9.952945709228516,-0.16749759018421173,-0.9385846853256226
1742766412814867500,3.005867431640625,8.432905197143555,-0.07597211748361588,-0.7058826684951782
1742766412817278000,3.00827783203125,8.14516830444336,0.35114672780036926,-0.24586252868175507
1742766412819675100,3.010675048828125,10.409975051879883,0.5276173949241638,-0.32602208852767944
1742766412822059000,3.01305908203125,11.58425235748291,0.061016976833343506,-0.37866419553756714
1742766412824469800,3.0154697265625,9.840482711791992,-0.37088751792907715,-0.3439682424068451
1742766412826867000,3.017866943359375,8.701499938964844,-0.0849452018737793,-0.13998012244701385
1742766412829264100,3.02026416015625,9.130413055419922,-0.3038884699344635,-0.09451649338006973
1742766412831661600,3.02266162109375,10.194621086120605,-0.3068794906139374,-0.08255238085985184
1742766412834058800,3.025058837890625,10.066006660461426,0.025722842663526535,-0.36610186100006104
1742766412836442600,3.027442626953125,8.394619941711426,0.30568310618400574,-0.1944168359041214
1742766412838853000,3.02985302734375,7.097710132598877,0.15493527054786682,-0.38225340843200684
1742766412841250600,3.03225048828125,7.0199432373046875,0.2554338276386261,-0.7154539823532104
1742766412843647700,3.034647705078125,7.87777042388916,0.259621262550354,-0.5599204897880554
1742766412846045000,3.037044921875,8.602197647094727,0.6203392744064331,-0.778863787651062
1742766412848442000,3.039442138671875,9.483952522277832,0.537188708782196,-1.399801254272461
1742766412850826200,3.041826171875,10.51107120513916,0.42831525206565857,-1.1982059478759766
1742766412853236700,3.04423681640625,11.607583045959473,0.5389832854270935,-0.9762716293334961
1742766412855634000,3.046634033203125,12.142378807067871,0.7447660565376282,-0.9146564602851868
1742766412858017800,3.049017822265625,11.142776489257812,0.5551348328590393,-0.40378883481025696
1742766412860428500,3.051428466796875,9.896714210510254,1.0079765319824219,-0.5222335457801819
1742766412862825700,3.05382568359375,10.709675788879395,0.7088736891746521,-0.6783652305603027
1742766412865209600,3.056209716796875,11.80618667602539,0.01615155301988125,-0.45583271980285645
1742766412867620400,3.058620361328125,12.104093551635742,-0.10408778488636017,-0.44745782017707825
1742766412870017500,3.061017578125,10.29870891571045,-0.1860419660806656,-0.27696922421455383
1742766412872401400,3.0634013671875,8.81934642791748,-0.3032902777194977,0.05383851006627083
1742766412874812000,3.06581201171875,10.116853713989258,-0.23629122972488403,-0.08673982322216034
1742766412877209300,3.068209228515625,11.881561279296875,-0.2877369225025177,-0.3002992272377014
1742766412879606500,3.0706064453125,11.46102237701416,-0.43908295035362244,-0.36191442608833313
1742766412882003700,3.073003662109375,10.017552375793457,0.09212367236614227,-0.45104706287384033
1742766412884401000,3.07540087890625,9.884750366210938,0.3655036687850952,-0.38763725757598877
1742766412886798000,3.077798095703125,9.42054271697998,0.29850462079048157,-0.3678964674472809
1742766412889195500,3.080195556640625,9.524630546569824,0.7956135272979736,-0.623330295085907
1742766412891592700,3.0825927734375,9.567103385925293,0.900897741317749,-0.6652047038078308
1742766412893990000,3.084989990234375,9.041878700256348,0.7136593461036682,-0.5078766345977783
1742766412896387300,3.08738720703125,8.820542335510254,0.8045865893363953,-1.0546365976333618
1742766412898784500,3.089784423828125,7.482954502105713,0.4097708761692047,-1.0917253494262695
