time,seconds_elapsed,z,y,x
1742766409852466000,0.0434658203125,9.801462173461914,0.38283130526542664,-0.14450621604919434
1742766409857260800,0.0482607421875,9.8014497756958,0.38256311416625977,-0.14602623879909515
1742766409862663000,0.053662841796875,9.801468849182129,0.38166818022727966,-0.1471165418624878
1742766409867457300,0.058457275390625,9.801505088806152,0.3807132840156555,-0.14715631306171417
1742766409872252000,0.063251953125,9.801480293273926,0.3798297047615051,-0.15106208622455597
1742766409877046300,0.06804638671875,9.801499366760254,0.3790786564350128,-0.15173159539699554
1742766409881841000,0.0728408203125,9.801485061645508,0.3796685039997101,-0.15118376910686493
1742766409886635300,0.07763525390625,9.80154800415039,0.37862035632133484,-0.1496858447790146
1742766409891430000,0.082429931640625,9.801487922668457,0.3804495632648468,-0.1490359753370285
1742766409896224300,0.087224365234375,9.801494598388672,0.37937161326408386,-0.1512700915336609
1742766409901019000,0.092018798828125,9.801509857177734,0.3777182400226593,-0.15441663563251495
1742766409905813200,0.096813232421875,9.801546096801758,0.3777492344379425,-0.1520412564277649
1742766409910608000,0.10160791015625,9.801543235778809,0.3788977861404419,-0.14933106303215027
1742766409915402200,0.10640234375,9.801506042480469,0.37935400009155273,-0.15060092508792877
1742766409920196900,0.11119677734375,9.801487922668457,0.379529744386673,-0.15128789842128754
1742766409924991500,0.115991455078125,9.801511764526367,0.3790495693683624,-0.1510043740272522
1742766409929785900,0.120785888671875,9.801602363586426,0.37718135118484497,-0.14981107413768768
1742766409934580500,0.12558056640625,9.801566123962402,0.37816622853279114,-0.14970873296260834
1742766409939374800,0.130374755859375,9.801576614379883,0.37768399715423584,-0.15021169185638428
1742766409944169500,0.13516943359375,9.80152416229248,0.37918663024902344,-0.149835005402565
1742766409948963800,0.1399638671875,9.80139446258545,0.3821741044521332,-0.15068672597408295
1742766409953758500,0.144758544921875,9.801397323608398,0.38082748651504517,-0.15389850735664368
1742766409958552800,0.149552734375,9.801419258117676,0.38141319155693054,-0.15105953812599182
1742766409963347500,0.154347412109375,9.801315307617188,0.3835960328578949,-0.1522390991449356
1742766409968141800,0.159141845703125,9.801276206970215,0.38380488753318787,-0.15423765778541565
1742766409972936400,0.1639365234375,9.80130672454834,0.3841157555580139,-0.15151111781597137
1742766409977730800,0.168730712890625,9.801422119140625,0.38239023089408875,-0.1483663022518158
1742766409982525400,0.173525390625,9.801471710205078,0.3804972767829895,-0.14991532266139984
1742766409987319800,0.17831982421875,9.801457405090332,0.37957215309143066,-0.15318846702575684
1742766409992114400,0.183114501953125,9.801488876342773,0.37994134426116943,-0.15021514892578125
1742766409996908800,0.18790869140625,9.801486015319824,0.3808799386024475,-0.14804916083812714
1742766410001690000,0.192690185546875,9.801366806030273,0.3824540674686432,-0.15183719992637634
1742766410006498000,0.197498046875,9.801413536071777,0.38103777170181274,-0.1523493081331253
1742766410011292400,0.20229248046875,9.801436424255371,0.380638986825943,-0.15184468030929565
1742766410016073500,0.207073486328125,9.801379203796387,0.3824484050273895,-0.15101507306098938
1742766410020881400,0.21188134765625,9.801435470581055,0.382095605134964,-0.1482606679201126
1742766410025676000,0.216676025390625,9.80142593383789,0.38184410333633423,-0.1495673507452011
1742766410030470400,0.221470458984375,9.801409721374512,0.3815406560897827,-0.151340514421463
1742766410035265000,0.22626513671875,9.801532745361328,0.3796842098236084,-0.14801350235939026
1742766410040059400,0.231059326171875,9.80159854888916,0.3784019947052002,-0.14690697193145752
1742766410044854000,0.23585400390625,9.801641464233398,0.3771541714668274,-0.14729410409927368
1742766410049648400,0.2406484375,9.80160903930664,0.37770289182662964,-0.14803805947303772
1742766410054443000,0.245443115234375,9.801542282104492,0.37923383712768555,-0.14853312075138092
1742766410059237400,0.2502373046875,9.801586151123047,0.37795019149780273,-0.14893822371959686
1742766410064032000,0.255031982421875,9.801658630371094,0.37622594833374023,-0.14849698543548584
1742766410068826400,0.259826416015625,9.801626205444336,0.375934898853302,-0.1513199508190155
1742766410073621000,0.26462109375,9.801621437072754,0.37614890933036804,-0.15112172067165375
1742766410078415400,0.269415283203125,9.801617622375488,0.37706753611564636,-0.149070143699646
1742766410083210000,0.2742099609375,9.801592826843262,0.377385675907135,-0.14987647533416748
1742766410088004400,0.27900439453125,9.801658630371094,0.3763906955718994,-0.14807109534740448
1742766410092799000,0.283799072265625,9.80167007446289,0.37523266673088074,-0.15021322667598724
1742766410097593300,0.28859326171875,9.801644325256348,0.3757312297821045,-0.15065214037895203
1742766410102388000,0.293387939453125,9.801680564880371,0.37582021951675415,-0.1481032520532608
1742766410107182600,0.2981826171875,9.801628112792969,0.37652578949928284,-0.1497354805469513
1742766410111977000,0.30297705078125,9.801575660705566,0.3775255084037781,-0.15065260231494904
1742766410116771600,0.307771484375,9.801648139953613,0.37578994035720825,-0.1503085345029831
1742766410121566000,0.31256591796875,9.801634788513184,0.3756774961948395,-0.15142810344696045
1742766410126360600,0.317360595703125,9.80164909362793,0.3764812648296356,-0.14845670759677887
1742766410131155000,0.322155029296875,9.801648139953613,0.3768300712108612,-0.14765915274620056
1742766410135949600,0.326949462890625,9.80166244506836,0.3762456476688385,-0.14822375774383545
1742766410140744000,0.331743896484375,9.801684379577637,0.3762280344963074,-0.1467868983745575
1742766410145538600,0.33653857421875,9.801704406738281,0.3758334815502167,-0.1464545577764511
1742766410150333000,0.3413330078125,9.80174446105957,0.3751029074192047,-0.14562056958675385
1742766410155127600,0.34612744140625,9.801780700683594,0.37448474764823914,-0.14476636052131653
1742766410159922000,0.350921875,9.801802635192871,0.37407609820365906,-0.14435620605945587
1742766410164716500,0.355716552734375,9.801727294921875,0.37585312128067017,-0.14486971497535706
1742766410169511000,0.360510986328125,9.8018217086792,0.37369295954704285,-0.14411596953868866
1742766410174305500,0.365305419921875,9.801837921142578,0.3725849390029907,-0.14582963287830353
1742766410179100000,0.370099853515625,9.801850318908691,0.3722101151943207,-0.14593319594860077
1742766410183894500,0.37489453125,9.801856994628906,0.3726617693901062,-0.14433392882347107
1742766410188675600,0.379675537109375,9.801837921142578,0.3728120028972626,-0.14520110189914703
1742766410193483500,0.3844833984375,9.80185317993164,0.37266433238983154,-0.14457307755947113
1742766410198278100,0.389278076171875,9.801956176757812,0.3708280324935913,-0.14228078722953796
1742766410203072500,0.394072509765625,9.802009582519531,0.3695541322231293,-0.14194172620773315
1742766410207867100,0.3988671875,9.801998138427734,0.36936822533607483,-0.1432284265756607
1742766410212661500,0.40366162109375,9.802030563354492,0.3685152530670166,-0.14319950342178345
1742766410217456000,0.4084560546875,9.801956176757812,0.36998167634010315,-0.14446982741355896
1742766410222250500,0.41325048828125,9.80189037322998,0.3714110851287842,-0.1452854573726654
1742766410227045000,0.418045166015625,9.801836967468262,0.3721480667591095,-0.14697596430778503
1742766410231839500,0.422839599609375,9.801770210266113,0.3730725347995758,-0.14904865622520447
1742766410236634000,0.427634033203125,9.801724433898926,0.3743370771408081,-0.14891697466373444
1742766410241428500,0.432428466796875,9.801698684692383,0.3753505051136017,-0.1480332612991333
1742766410246209800,0.437209716796875,9.801724433898926,0.3752119243144989,-0.14671774208545685
1742766410251017500,0.442017578125,9.801725387573242,0.37506648898124695,-0.1470080316066742
1742766410255812000,0.44681201171875,9.801728248596191,0.3743882179260254,-0.14854717254638672
1742766410260606500,0.4516064453125,9.801776885986328,0.3736375570297241,-0.14723439514636993
1742766410265401000,0.456401123046875,9.801774978637695,0.373835027217865,-0.14688551425933838
1742766410270195500,0.461195556640625,9.801688194274902,0.37591859698295593,-0.14730609953403473
1742766410274990000,0.465989990234375,9.801630020141602,0.37698134779930115,-0.1484864205121994
1742766410279784400,0.470784423828125,9.801621437072754,0.3774136006832123,-0.14792397618293762
1742766410284579000,0.4755791015625,9.8016357421875,0.37672412395477295,-0.14876572787761688
1742766410289373400,0.48037353515625,9.801556587219238,0.37858206033706665,-0.14918595552444458
1742766410294168000,0.48516796875,9.801553726196289,0.37921130657196045,-0.14784447848796844
1742766410298962700,0.489962646484375,9.801592826843262,0.37810030579566956,-0.14808839559555054
1742766410303757000,0.494757080078125,9.801597595214844,0.37875497341156006,-0.14604999125003815
1742766410308551700,0.4995517578125,9.801682472229004,0.3770049214363098,-0.14487077295780182
1742766410313346000,0.504345947265625,9.801717758178711,0.37576553225517273,-0.14573657512664795
1742766410318140700,0.509140625,9.801772117614746,0.37431880831718445,-0.1457924097776413
1742766410322935000,0.51393505859375,9.801765441894531,0.3747463822364807,-0.14515578746795654
1742766410327729700,0.518729736328125,9.801687240600586,0.37659889459609985,-0.14564917981624603
1742766410332510700,0.5235107421875,9.801645278930664,0.3767499625682831,-0.14806148409843445
1742766410337318700,0.528318603515625,9.801711082458496,0.37484946846961975,-0.14848919212818146
1742766410342113000,0.533113037109375,9.80170726776123,0.37520697712898254,-0.14785103499889374
1742766410346894300,0.537894287109375,9.801666259765625,0.37667471170425415,-0.146885484457016
1742766410351702000,0.542701904296875,9.801667213439941,0.37636029720306396,-0.14754952490329742
1742766410356496600,0.54749658203125,9.801676750183105,0.3758869469165802,-0.148200124502182
1742766410361277700,0.552277587890625,9.801687240600586,0.3761790692806244,-0.1467178612947464
1742766410366085600,0.557085693359375,9.801724433898926,0.37574082612991333,-0.1453230381011963
1742766410370880000,0.5618798828125,9.801726341247559,0.3758401870727539,-0.14496496319770813
1742766410375661300,0.566661376953125,9.801712989807129,0.37587079405784607,-0.1457841396331787
1742766410380469200,0.57146923828125,9.801636695861816,0.3775952160358429,-0.14644406735897064
1742766410385263600,0.576263671875,9.801557540893555,0.37920498847961426,-0.1475898176431656
1742766410390058200,0.581058349609375,9.80160903930664,0.3782874643802643,-0.14652284979820251
1742766410394852600,0.5858525390625,9.801612854003906,0.37749260663986206,-0.14832830429077148
1742766410399647200,0.590647216796875,9.801559448242188,0.37824204564094543,-0.1498948335647583
1742766410404428300,0.59542822265625,9.801568984985352,0.37836822867393494,-0.14901922643184662
1742766410409236200,0.600236328125,9.801556587219238,0.37876737117767334,-0.14877226948738098
1742766410414030600,0.605030517578125,9.801596641540527,0.37798207998275757,-0.1481553465127945
1742766410418825200,0.6098251953125,9.80166244506836,0.37643980979919434,-0.14768576622009277
1742766410423619600,0.61461962890625,9.801671981811523,0.3759579658508301,-0.14834997057914734
1742766410428414200,0.619414306640625,9.801660537719727,0.37628117203712463,-0.14822910726070404
1742766410433195300,0.6241953125,9.801676750183105,0.3759234547615051,-0.1480494737625122
1742766410438003200,0.629003173828125,9.801644325256348,0.37636488676071167,-0.14906032383441925
1742766410442797600,0.633797607421875,9.801671028137207,0.37560153007507324,-0.14925290644168854
1742766410447592200,0.63859228515625,9.801724433898926,0.37402546405792236,-0.14968903362751007
1742766410452386600,0.643386474609375,9.801750183105469,0.37348178029060364,-0.14936332404613495
1742766410457181200,0.64818115234375,9.801783561706543,0.3724176287651062,-0.14984352886676788
1742766410461975800,0.652975830078125,9.801812171936035,0.3713872730731964,-0.1505383849143982
1742766410466770200,0.657770263671875,9.801863670349121,0.3707801401615143,-0.14861315488815308
1742766410471564500,0.662564453125,9.801953315734863,0.36881595849990845,-0.14766338467597961
1742766410476359200,0.667359130859375,9.802041053771973,0.3666089177131653,-0.14731894433498383
1742766410481153800,0.67215380859375,9.802070617675781,0.365479052066803,-0.14816036820411682
1742766410485948200,0.6769482421875,9.802029609680176,0.36662885546684265,-0.14799201488494873
1742766410490742800,0.68174267578125,9.802014350891113,0.36639007925987244,-0.14960645139217377
1742766410495537200,0.686537109375,9.802016258239746,0.3656037151813507,-0.1513882726430893
1742766410500331800,0.691331787109375,9.802021026611328,0.3647365868091583,-0.1531379222869873
1742766410505112800,0.69611279296875,9.80191707611084,0.36707767844200134,-0.1542542725801468
1742766410509920800,0.700920654296875,9.80185317993164,0.3688831031322479,-0.1539832502603531
1742766410514715100,0.705715087890625,9.801865577697754,0.3692963123321533,-0.1521822065114975
1742766410519509800,0.710509765625,9.801855087280273,0.3691040873527527,-0.1533336043357849
1742766410524304100,0.71530419921875,9.801860809326172,0.3688383102416992,-0.1535646617412567
1742766410529098800,0.7200986328125,9.801868438720703,0.36856815218925476,-0.15375518798828125
1742766410533893000,0.72489306640625,9.801894187927246,0.3681832253932953,-0.1529916673898697
1742766410538687700,0.729687744140625,9.801883697509766,0.3684043884277344,-0.15315128862857819
1742766410543482000,0.734482177734375,9.801777839660645,0.37009960412979126,-0.15584062039852142
1742766410548276700,0.73927685546875,9.801749229431152,0.370753675699234,-0.15606512129306793
1742766410553071000,0.744071044921875,9.801758766174316,0.37086454033851624,-0.15523159503936768
1742766410557865700,0.74886572265625,9.801751136779785,0.37132909893989563,-0.1545860320329666
1742766410562660400,0.753660400390625,9.801674842834473,0.37317144870758057,-0.1549423336982727
1742766410567454700,0.758454833984375,9.801621437072754,0.37424221634864807,-0.15577195584774017
1742766410572249300,0.763249267578125,9.801648139953613,0.3737260401248932,-0.15532930195331573
1742766410577030400,0.768030517578125,9.801654815673828,0.37386348843574524,-0.15459991991519928
1742766410581838300,0.77283837890625,9.801619529724121,0.37483158707618713,-0.1544741690158844
1742766410586632700,0.7776328125,9.80166244506836,0.3735993206501007,-0.15474580228328705
1742766410591427300,0.78242724609375,9.801691055297852,0.3730064332485199,-0.15433715283870697
1742766410596221700,0.7872216796875,9.801753997802734,0.3721620738506317,-0.15236112475395203
1742766410601016300,0.792016357421875,9.801774024963379,0.3714669346809387,-0.15280026197433472
1742766410605797400,0.79679736328125,9.801721572875977,0.37213820219039917,-0.15449364483356476
1742766410610605300,0.801605224609375,9.801739692687988,0.3712038993835449,-0.15561842918395996
1742766410615399700,0.806399658203125,9.80172061920166,0.37191566824913025,-0.1551104485988617
1742766410620194300,0.8111943359375,9.801689147949219,0.3730131983757019,-0.15447573363780975
1742766410624988700,0.81598876953125,9.80167007446289,0.37290289998054504,-0.15591038763523102
1742766410629783300,0.820783203125,9.80171012878418,0.37185168266296387,-0.15592972934246063
1742766410634577700,0.82557763671875,9.801724433898926,0.3714450001716614,-0.1560206264257431
1742766410639372300,0.830372314453125,9.801692008972168,0.3723769187927246,-0.15580926835536957
1742766410644167000,0.8351669921875,9.801681518554688,0.3726702332496643,-0.15577933192253113
1742766410648948000,0.839947998046875,9.801713943481445,0.3718072474002838,-0.1557578593492508
1742766410653755600,0.844755615234375,9.801651954650879,0.37310531735420227,-0.15658237040042877
1742766410658550300,0.84955029296875,9.801604270935059,0.3736412525177002,-0.15828508138656616
1742766410663344600,0.8543447265625,9.801568984985352,0.3737007677555084,-0.1603245884180069
1742766410668139300,0.85913916015625,9.80155086517334,0.3736262917518616,-0.1615721732378006
1742766410672934000,0.863933837890625,9.801520347595215,0.37448111176490784,-0.1614721268415451
1742766410677715000,0.86871484375,9.801506042480469,0.3750644326210022,-0.1609908789396286
1742766410682523000,0.87352294921875,9.801553726196289,0.37391069531440735,-0.1607648879289627
1742766410687317200,0.878317138671875,9.801610946655273,0.3723337948322296,-0.16091148555278778
1742766410692098600,0.8830986328125,9.801653861999512,0.37175706028938293,-0.15965300798416138
1742766410696906200,0.88790625,9.801658630371094,0.37156715989112854,-0.15977758169174194
1742766410701700900,0.892700927734375,9.801641464233398,0.372356116771698,-0.1589999496936798
1742766410706495200,0.8974951171875,9.801648139953613,0.37194308638572693,-0.15960875153541565
1742766410711289900,0.902289794921875,9.801633834838867,0.37221822142601013,-0.15982577204704285
1742766410716084200,0.907084228515625,9.801627159118652,0.3720512092113495,-0.16057945787906647
1742766410720865500,0.911865478515625,9.801665306091309,0.3717564344406128,-0.15894903242588043
1742766410725673200,0.916673095703125,9.801695823669434,0.37121254205703735,-0.158297598361969
1742766410730467800,0.9214677734375,9.801716804504395,0.3702138364315033,-0.15937715768814087
1742766410735262200,0.92626220703125,9.80178165435791,0.36859115958213806,-0.15914064645767212
1742766410740056800,0.931056884765625,9.80181884765625,0.368366539478302,-0.15735849738121033
1742766410744851200,0.935851318359375,9.801872253417969,0.367646723985672,-0.15571431815624237
1742766410749645800,0.940645751953125,9.801935195922852,0.3666186034679413,-0.15415018796920776
1742766410754440400,0.9454404296875,9.801950454711914,0.36616629362106323,-0.15426099300384521
1742766410759234800,0.95023486328125,9.801905632019043,0.36784908175468445,-0.15314026176929474
1742766410764029400,0.955029541015625,9.801924705505371,0.3670686185359955,-0.1537817120552063
1742766410768823800,0.95982373046875,9.801928520202637,0.36609989404678345,-0.15577825903892517
1742766410773618400,0.964618408203125,9.801910400390625,0.36617985367774963,-0.15675698220729828
1742766410778412800,0.969412841796875,9.801810264587402,0.3687393367290497,-0.1570414900779724
1742766410783207400,0.97420751953125,9.801726341247559,0.37131866812705994,-0.1561683565378189
1742766410788001800,0.979001708984375,9.801763534545898,0.37079140543937683,-0.15511023998260498
1742766410792783000,0.983783203125,9.801759719848633,0.3708762228488922,-0.15513402223587036
1742766410797590800,0.9885908203125,9.801712989807129,0.37172266840934753,-0.15606676042079926
1742766410802385400,0.993385498046875,9.801718711853027,0.3714374899864197,-0.15640206634998322
1742766410807166500,0.99816650390625,9.801778793334961,0.3701794445514679,-0.15556524693965912
1742766410811974400,1.002974365234375,9.801746368408203,0.3707072138786316,-0.15635345876216888
1742766410816768800,1.007768798828125,9.801650047302246,0.3727956712245941,-0.15745215117931366
1742766410821563400,1.0125634765625,9.801653861999512,0.3727169334888458,-0.157380148768425
1742766410826357800,1.017357666015625,9.801679611206055,0.3721626400947571,-0.15706370770931244
1742766410831152400,1.02215234375,9.801651954650879,0.3728245794773102,-0.15724880993366241
1742766410835946800,1.02694677734375,9.801591873168945,0.37457776069641113,-0.15679775178432465
1742766410840741400,1.031741455078125,9.80154037475586,0.375631719827652,-0.1574869006872177
1742766410845535700,1.03653564453125,9.801589965820312,0.3749920129776001,-0.15593081712722778
1742766410850317000,1.041317138671875,9.801643371582031,0.37399932742118835,-0.15502095222473145
1742766410855125000,1.046125,9.801630020141602,0.3746628761291504,-0.15423093736171722
1742766410859919400,1.05091943359375,9.80165958404541,0.3743601143360138,-0.15305303037166595
1742766410864714000,1.0557138671875,9.801689147949219,0.3735302686691284,-0.1532277762889862
1742766410869508400,1.06050830078125,9.80172348022461,0.37337633967399597,-0.1514049768447876
1742766410874303000,1.065302978515625,9.80173397064209,0.3726251721382141,-0.1525222212076187
1742766410879084000,1.070083984375,9.801700592041016,0.37310731410980225,-0.15355052053928375
1742766410883892000,1.07489208984375,9.801698684692383,0.37239038944244385,-0.15533669292926788
1742766410888686300,1.079686279296875,9.801653861999512,0.37332773208618164,-0.15593165159225464
1742766410893467600,1.084467529296875,9.801655769348145,0.3737369477748871,-0.15485675632953644
1742766410898275300,1.089275390625,9.801630020141602,0.37413710355758667,-0.15549229085445404
1742766410903070000,1.094070068359375,9.801697731018066,0.37249988317489624,-0.1551792472600937
1742766410907851000,1.09885107421875,9.80174446105957,0.37133169174194336,-0.15500234067440033
1742766410912659000,1.103658935546875,9.801749229431152,0.37096914649009705,-0.15554745495319366
1742766410917453300,1.108453369140625,9.801742553710938,0.3709259629249573,-0.1560545116662979
1742766410922234600,1.113234619140625,9.801682472229004,0.3720308244228363,-0.15726397931575775
1742766410927042300,1.118042236328125,9.801596641540527,0.37381085753440857,-0.15835341811180115
1742766410931837000,1.1228369140625,9.801587104797363,0.3737410008907318,-0.15911062061786652
1742766410936631600,1.127631591796875,9.80154800415039,0.37362179160118103,-0.16176892817020416
1742766410941426000,1.132426025390625,9.801570892333984,0.37335431575775146,-0.16100318729877472
1742766410946220500,1.137220458984375,9.801520347595215,0.37448182702064514,-0.16144096851348877
1742766410951001600,1.142001708984375,9.801483154296875,0.3751303255558014,-0.1622132807970047
1742766410955809300,1.146809326171875,9.801560401916504,0.37364041805267334,-0.16096840798854828
1742766410960604000,1.15160400390625,9.801626205444336,0.371902197599411,-0.16095539927482605
1742766410965385000,1.156385009765625,9.801630973815918,0.3720850944519043,-0.16029784083366394
1742766410970193000,1.16119287109375,9.801654815673828,0.37131649255752563,-0.1606125831604004
1742766410974987500,1.165987548828125,9.801641464233398,0.3719412088394165,-0.15996462106704712
1742766410979782000,1.170781982421875,9.8016357421875,0.3724002540111542,-0.15922507643699646
1742766410984576500,1.175576416015625,9.801610946655273,0.37246960401535034,-0.1605728417634964
1742766410989371000,1.180370849609375,9.801650047302246,0.37120217084884644,-0.16117508709430695
1742766410994165500,1.18516552734375,9.80165958404541,0.3709748685359955,-0.16113655269145966
1742766410998959900,1.1899599609375,9.801671981811523,0.3708481788635254,-0.16063395142555237
1742766411003754500,1.19475439453125,9.801721572875977,0.3704315721988678,-0.1585845649242401
1742766411008535600,1.19953564453125,9.801885604858398,0.3686557412147522,-0.1524573266506195
1742766411013343500,1.204343505859375,9.801959991455078,0.36728453636169434,-0.15099267661571503
1742766411018137900,1.209137939453125,9.801925659179688,0.36694246530532837,-0.15398217737674713
1742766411022919200,1.213919189453125,9.801974296569824,0.36469346284866333,-0.1562616527080536
1742766411027726800,1.218726806640625,9.801992416381836,0.3627818524837494,-0.159527987241745
1742766411032521500,1.223521484375,9.801950454711914,0.3638373911380768,-0.15964795649051666
1742766411037315800,1.22831591796875,9.801942825317383,0.36384227871894836,-0.1601618528366089
1742766411042110500,1.2331103515625,9.801987648010254,0.36236584186553955,-0.16076043248176575
1742766411046905000,1.237905029296875,9.801982879638672,0.3619345426559448,-0.16197189688682556
1742766411051699500,1.242699462890625,9.802000999450684,0.3613888919353485,-0.16209474205970764
1742766411056494000,1.247494140625,9.801926612854004,0.363169401884079,-0.1626279056072235
1742766411061288400,1.252288330078125,9.8019380569458,0.3625008463859558,-0.16340892016887665
1742766411066083000,1.2570830078125,9.801961898803711,0.3620913326740265,-0.16290603578090668
1742766411070877400,1.26187744140625,9.801985740661621,0.3610326051712036,-0.16381683945655823
1742766411075672000,1.266672119140625,9.802001953125,0.3609403669834137,-0.1630568504333496
1742766411080466400,1.271466552734375,9.802021980285645,0.36035677790641785,-0.16315975785255432
1742766411085261000,1.276260986328125,9.802011489868164,0.36027199029922485,-0.16396169364452362
1742766411090055400,1.281055419921875,9.801971435546875,0.36100316047668457,-0.1647721379995346
1742766411094850000,1.28585009765625,9.801957130432129,0.3605269491672516,-0.16663528978824615
1742766411099644400,1.29064453125,9.801933288574219,0.36098694801330566,-0.16703160107135773
1742766411104439000,1.29543896484375,9.801921844482422,0.3613223433494568,-0.16695429384708405
1742766411109233400,1.3002333984375,9.801898956298828,0.36192137002944946,-0.16703112423419952
1742766411114028000,1.305028076171875,9.801918029785156,0.3618575632572174,-0.1660030484199524
1742766411118822400,1.309822509765625,9.801995277404785,0.3612001836299896,-0.16290834546089172
1742766411123603700,1.314603759765625,9.80197811126709,0.3612915873527527,-0.16371560096740723
1742766411128411400,1.319411376953125,9.801924705505371,0.3617989420890808,-0.16580411791801453
1742766411133206000,1.3242060546875,9.801952362060547,0.3604804277420044,-0.16701211035251617
1742766411138000400,1.32900048828125,9.801973342895508,0.3590240180492401,-0.1689085215330124
1742766411142795000,1.333794921875,9.80193042755127,0.360271155834198,-0.16871194541454315
1742766411147589400,1.33858935546875,9.801933288574219,0.35985997319221497,-0.16946357488632202
1742766411152384000,1.343384033203125,9.801928520202637,0.3596065044403076,-0.17023475468158722
1742766411157178600,1.3481787109375,9.80186939239502,0.35982760787010193,-0.17316323518753052
1742766411161973000,1.352972900390625,9.801835060119629,0.3610721528530121,-0.1725495159626007
1742766411166767600,1.357767578125,9.801814079284668,0.3620493710041046,-0.1716604083776474
1742766411171562000,1.36256201171875,9.801822662353516,0.3615230619907379,-0.1722724437713623
1742766411176356600,1.367356689453125,9.801838874816895,0.36119940876960754,-0.1720181107521057
1742766411181137700,1.3721376953125,9.80185317993164,0.3602672815322876,-0.17313288152217865
1742766411185945600,1.376945556640625,9.80184268951416,0.3608962595462799,-0.17246253788471222
1742766411190740000,1.381739990234375,9.801873207092285,0.359452486038208,-0.17375192046165466
1742766411195534600,1.38653466796875,9.801786422729492,0.3613181710243225,-0.17476096749305725
1742766411200329000,1.391328857421875,9.801706314086914,0.3628692030906677,-0.1760239601135254
1742766411205123600,1.39612353515625,9.801654815673828,0.36358851194381714,-0.17740924656391144
1742766411209918000,1.40091796875,9.801612854003906,0.3640870153903961,-0.17868532240390778
1742766411214712600,1.405712646484375,9.801587104797363,0.3649493455886841,-0.1783473938703537
1742766411219507000,1.4105068359375,9.801502227783203,0.36635899543762207,-0.18011543154716492
1742766411224301600,1.415301513671875,9.801494598388672,0.3660007119178772,-0.18127471208572388
1742766411229096000,1.420095947265625,9.801517486572266,0.3659436106681824,-0.18014799058437347
1742766411233890600,1.424890625,9.801523208618164,0.3657812476158142,-0.1801527887582779
1742766411238671600,1.429671630859375,9.801519393920898,0.3659879267215729,-0.17993777990341187
1742766411243479600,1.4344794921875,9.801617622375488,0.36320942640304565,-0.18022705614566803
1742766411248274000,1.43927392578125,9.801605224609375,0.3637242317199707,-0.1798519343137741
1742766411253068500,1.444068603515625,9.80153751373291,0.3653406500816345,-0.18029020726680756
1742766411257863200,1.44886328125,9.801518440246582,0.3654686510562897,-0.18103934824466705
1742766411262657500,1.453657470703125,9.80154037475586,0.3642575144767761,-0.1823038011789322
1742766411267452200,1.4584521484375,9.801506996154785,0.3650779724121094,-0.1824171245098114
1742766411272246500,1.46324658203125,9.801475524902344,0.36608630418777466,-0.18210549652576447
1742766411277041200,1.468041259765625,9.801507949829102,0.365092009305954,-0.1823529601097107
1742766411281835500,1.47283544921875,9.801532745361328,0.3644976317882538,-0.1822366863489151
1742766411286630100,1.477630126953125,9.801582336425781,0.3635387122631073,-0.1814822107553482
1742766411291424500,1.482424560546875,9.80160903930664,0.362857848405838,-0.18139362335205078
1742766411296205800,1.487205810546875,9.801627159118652,0.36209842562675476,-0.18191711604595184
1742766411301013500,1.492013427734375,9.801671028137207,0.3609175980091095,-0.18192599713802338
1742766411305808100,1.49680810546875,9.801609992980957,0.36202511191368103,-0.18298521637916565
1742766411310602500,1.5016025390625,9.801582336425781,0.3625764548778534,-0.18338507413864136
1742766411315397000,1.506397216796875,9.801587104797363,0.36186614632606506,-0.18452318012714386
1742766411320191500,1.51119140625,9.801579475402832,0.36179250478744507,-0.18510092794895172
1742766411324986000,1.515986083984375,9.801589012145996,0.36163491010665894,-0.1849190592765808
1742766411329780500,1.520780517578125,9.801570892333984,0.36180582642555237,-0.18551276624202728
1742766411334575000,1.5255751953125,9.80152702331543,0.36223456263542175,-0.18696242570877075
1742766411339369700,1.53036962890625,9.80152702331543,0.3619789183139801,-0.1874990314245224
1742766411344164000,1.5351640625,9.801504135131836,0.3628576099872589,-0.18696308135986328
1742766411348958700,1.539958740234375,9.801507949829102,0.3630186915397644,-0.18646742403507233
1742766411353739800,1.54473974609375,9.80155086517334,0.3622812032699585,-0.18562725186347961
1742766411358547700,1.549547607421875,9.801520347595215,0.3624236285686493,-0.18695497512817383
1742766411363342000,1.554342041015625,9.801462173461914,0.3632485568523407,-0.1884390115737915
1742766411368136700,1.55913671875,9.80143928527832,0.3633978068828583,-0.1892748922109604
1742766411372931000,1.56393115234375,9.801422119140625,0.3632865250110626,-0.19039222598075867
1742766411377725700,1.5687255859375,9.801346778869629,0.36493098735809326,-0.19113802909851074
1742766411382520000,1.57352001953125,9.801325798034668,0.36505070328712463,-0.19198034703731537
1742766411387314700,1.578314697265625,9.801308631896973,0.36524587869644165,-0.19251908361911774
1742766411392109000,1.583109130859375,9.801321983337402,0.36507177352905273,-0.19214093685150146
1742766411396890400,1.587890380859375,9.801353454589844,0.3642081618309021,-0.19216516613960266
1742766411401698000,1.592697998046875,9.801324844360352,0.3643985688686371,-0.1932501196861267
1742766411406492700,1.59749267578125,9.80136489868164,0.3636189103126526,-0.19272354245185852
1742766411411287000,1.602287109375,9.801355361938477,0.36344391107559204,-0.19351573288440704
1742766411416081700,1.60708154296875,9.801312446594238,0.3638976812362671,-0.19485199451446533
1742766411420876000,1.6118759765625,9.801281929016113,0.3639680743217468,-0.1962270438671112
1742766411425670700,1.616670654296875,9.801299095153809,0.3632575571537018,-0.1966872662305832
1742766411430465000,1.621465087890625,9.801268577575684,0.36367830634117126,-0.19743117690086365
1742766411435259600,1.626259765625,9.801275253295898,0.3637741506099701,-0.19693496823310852
1742766411440054000,1.631053955078125,9.801268577575684,0.36359575390815735,-0.19755275547504425
1742766411444848600,1.6358486328125,9.801251411437988,0.36341848969459534,-0.19877193868160248
1742766411449643300,1.640643310546875,9.801274299621582,0.3631606698036194,-0.19807825982570648
1742766411454424300,1.64542431640625,9.801292419433594,0.3627125918865204,-0.19803939759731293
1742766411459232300,1.650232177734375,9.801298141479492,0.36244356632232666,-0.19820217788219452
1742766411464026600,1.655026611328125,9.801336288452148,0.3611091375350952,-0.19880439341068268
1742766411468821200,1.6598212890625,9.801315307617188,0.3614789843559265,-0.19913916289806366
1742766411473615600,1.66461572265625,9.801264762878418,0.3621882200241089,-0.20034195482730865
1742766411478410200,1.66941015625,9.801274299621582,0.36192378401756287,-0.20034457743167877
1742766411483204600,1.67420458984375,9.801229476928711,0.36184588074684143,-0.20266281068325043
1742766411487999200,1.678999267578125,9.801146507263184,0.364105761051178,-0.20265638828277588
1742766411492793600,1.683793701171875,9.801136016845703,0.36434462666511536,-0.2027188092470169
1742766411497588200,1.688588134765625,9.801115989685059,0.3644210696220398,-0.2035704404115677
1742766411502382600,1.693382568359375,9.801114082336426,0.36474278569221497,-0.20308759808540344
1742766411507177200,1.69817724609375,9.801137924194336,0.3634580075740814,-0.20421120524406433
1742766411511958300,1.702958251953125,9.801145553588867,0.3634226322174072,-0.20388297736644745
1742766411516766200,1.70776611328125,9.801192283630371,0.36223462224006653,-0.2037593424320221
1742766411521560600,1.712560546875,9.801178932189941,0.3623000383377075,-0.204297736287117
1742766411526355200,1.717355224609375,9.80113697052002,0.3631706237792969,-0.20475268363952637
1742766411531149600,1.722149658203125,9.801098823547363,0.363249808549881,-0.2064487785100937
1742766411535944200,1.726944091796875,9.801087379455566,0.3629538416862488,-0.2075134515762329
1742766411540738600,1.731738525390625,9.801078796386719,0.3632935881614685,-0.20731621980667114
1742766411545533200,1.736533203125,9.801054000854492,0.3641669452190399,-0.20695960521697998
1742766411550327600,1.74132763671875,9.801019668579102,0.36416324973106384,-0.20859146118164062
1742766411555122200,1.7461220703125,9.801033973693848,0.36323022842407227,-0.20956143736839294
1742766411559916800,1.750916748046875,9.801087379455566,0.36233314871788025,-0.20858074724674225
1742766411564711200,1.755711181640625,9.80112361907959,0.36114487051963806,-0.20892967283725739
1742766411569492200,1.7604921875,9.801093101501465,0.3619444966316223,-0.20899932086467743
1742766411574300200,1.765300048828125,9.801149368286133,0.3601617217063904,-0.2094135582447052
1742766411579094800,1.7700947265625,9.801106452941895,0.36105969548225403,-0.20988333225250244
1742766411583875800,1.774875732421875,9.801078796386719,0.361288458108902,-0.2108071893453598
1742766411588683800,1.779683837890625,9.801057815551758,0.3607272803783417,-0.21269573271274567
1742766411593478100,1.78447802734375,9.801027297973633,0.3607279658317566,-0.21412307024002075
1742766411598272800,1.789272705078125,9.801017761230469,0.3603639602661133,-0.21517176926136017
1742766411603067100,1.794067138671875,9.800992965698242,0.3611162006855011,-0.21504777669906616
1742766411607861800,1.79886181640625,9.800995826721191,0.36023637652397156,-0.21636347472667694
1742766411612642800,1.803642822265625,9.801009178161621,0.35982537269592285,-0.2164556235074997
1742766411617450800,1.80845068359375,9.801043510437012,0.35818150639533997,-0.21765530109405518
1742766411622245000,1.8132451171875,9.801003456115723,0.3589559495449066,-0.21813879907131195
1742766411627039700,1.818039794921875,9.801015853881836,0.35886937379837036,-0.2177315652370453
1742766411631834000,1.822834228515625,9.800975799560547,0.35913094878196716,-0.21910078823566437
1742766411636628700,1.827628662109375,9.800894737243652,0.36014363169670105,-0.2210441678762436
1742766411641423000,1.832423095703125,9.800887107849121,0.359441876411438,-0.22253765165805817
1742766411646217700,1.8372177734375,9.800874710083008,0.35920992493629456,-0.22343437373638153
1742766411651012000,1.84201220703125,9.800843238830566,0.3598073422908783,-0.22385245561599731
1742766411655806700,1.846806640625,9.800798416137695,0.36063939332962036,-0.22449983656406403
1742766411660601300,1.851601318359375,9.800787925720215,0.36044538021087646,-0.22527608275413513
1742766411665395700,1.856395751953125,9.800796508789062,0.359626442193985,-0.22617630660533905
1742766411670190300,1.8611904296875,9.80081844329834,0.3594389259815216,-0.2255285084247589
1742766411674984700,1.865984619140625,9.800798416137695,0.359130322933197,-0.22691351175308228
1742766411679779300,1.870779296875,9.80078411102295,0.35910764336586,-0.2275741547346115
1742766411684573700,1.87557373046875,9.800792694091797,0.35794225335121155,-0.22902317345142365
1742766411689368300,1.880368408203125,9.800728797912598,0.3593720495700836,-0.22952595353126526
1742766411694162700,1.88516259765625,9.800690650939941,0.35998764634132385,-0.23017285764217377
1742766411698957300,1.889957275390625,9.800705909729004,0.3584077060222626,-0.2319723218679428
1742766411703751700,1.894751708984375,9.800689697265625,0.35799914598464966,-0.23330959677696228
1742766411708546300,1.89954638671875,9.800663948059082,0.35890328884124756,-0.23298390209674835
1742766411713340700,1.904340576171875,9.800651550292969,0.35872840881347656,-0.23377984762191772
1742766411718135300,1.90913525390625,9.800670623779297,0.3580690622329712,-0.23397381603717804
1742766411722929700,1.9139296875,9.800697326660156,0.35700544714927673,-0.23451852798461914
1742766411727724300,1.918724365234375,9.800731658935547,0.35666197538375854,-0.2335902750492096
1742766411732518700,1.9235185546875,9.800785064697266,0.3552572727203369,-0.23346565663814545
1742766411737313300,1.928313232421875,9.800772666931152,0.3552393913269043,-0.2340148687362671
1742766411742094300,1.93309423828125,9.800774574279785,0.3549412190914154,-0.23438091576099396
1742766411746902300,1.93790234375,9.800737380981445,0.35522523522377014,-0.23550927639007568
1742766411751696600,1.942696533203125,9.800742149353027,0.3547109365463257,-0.236100971698761
1742766411756478000,1.94747802734375,9.800759315490723,0.35368385910987854,-0.23694941401481628
1742766411761285600,1.95228564453125,9.800684928894043,0.3554874360561371,-0.23729528486728668
1742766411766080300,1.957080322265625,9.800663948059082,0.3563305735588074,-0.23692075908184052
1742766411770875000,1.961875,9.80063247680664,0.35653844475746155,-0.23788698017597198
1742766411775669200,1.966669189453125,9.800638198852539,0.3565085828304291,-0.23768889904022217
1742766411780463900,1.9714638671875,9.800698280334473,0.3556191325187683,-0.23652292788028717
1742766411785258200,1.97625830078125,9.800699234008789,0.35548368096351624,-0.236708864569664
1742766411790052900,1.981052978515625,9.800722122192383,0.35495030879974365,-0.23656512796878815
1742766411794847200,1.98584716796875,9.8007230758667,0.35474467277526855,-0.23686161637306213
1742766411799641900,1.990641845703125,9.800688743591309,0.35518431663513184,-0.23758971691131592
1742766411804436200,1.995436279296875,9.80065631866455,0.3554936349391937,-0.23847714066505432
1742766411809230800,2.00023095703125,9.80067253112793,0.3545387387275696,-0.2392076998949051
1742766411814025200,2.005025146484375,9.80064582824707,0.3548549711704254,-0.23983846604824066
1742766411818819800,2.00981982421875,9.80060863494873,0.35595595836639404,-0.23974549770355225
1742766411823614200,2.0146142578125,9.800579071044922,0.356362521648407,-0.24032320082187653
1742766411828408800,2.019408935546875,9.800588607788086,0.35601767897605896,-0.240457221865654
1742766411833203200,2.024203125,9.800610542297363,0.3553978502750397,-0.24045956134796143
1742766411837997800,2.028997802734375,9.800593376159668,0.35535624623298645,-0.2412569671869278
1742766411842792200,2.033792236328125,9.800600051879883,0.3551848828792572,-0.24119524657726288
1742766411847586800,2.0385869140625,9.800631523132324,0.35431569814682007,-0.24122904241085052
1742766411852381400,2.04338134765625,9.800606727600098,0.3546134829521179,-0.24180817604064941
1742766411857175800,2.04817578125,9.800561904907227,0.354572057723999,-0.24367278814315796
1742766411861970200,2.05297021484375,9.800593376159668,0.35386717319488525,-0.24342221021652222
1742766411866764800,2.057764892578125,9.800592422485352,0.3535900115966797,-0.24386851489543915
1742766411871559200,2.06255908203125,9.800537109375,0.3548579514026642,-0.2442581206560135
1742766411876353800,2.067353759765625,9.800518989562988,0.3551681935787201,-0.24451352655887604
1742766411881148400,2.0721484375,9.800497055053711,0.3550770580768585,-0.24552060663700104
1742766411885929500,2.076929443359375,9.800545692443848,0.35433831810951233,-0.24467982351779938
1742766411890737400,2.0817373046875,9.800573348999023,0.3532457947731018,-0.24513645470142365
1742766411895531800,2.08653173828125,9.800579071044922,0.3530517518520355,-0.24520310759544373
1742766411900326400,2.091326416015625,9.800568580627441,0.3531704545021057,-0.24540798366069794
1742766411905120800,2.096120849609375,9.800497055053711,0.35510939359664917,-0.24544700980186462
1742766411909915400,2.100915283203125,9.800491333007812,0.3549751341342926,-0.24590018391609192
1742766411914696400,2.105696533203125,9.800480842590332,0.3543359339237213,-0.2472352683544159
1742766411919504400,2.11050439453125,9.800416946411133,0.3545397222042084,-0.24944433569908142
1742766411924298800,2.115298828125,9.800322532653809,0.3561355769634247,-0.25091302394866943
1742766411929093400,2.12009326171875,9.80026912689209,0.3574109971523285,-0.2511560022830963
1742766411933887700,2.1248876953125,9.800294876098633,0.35653451085090637,-0.25140056014060974
1742766411938682400,2.129682373046875,9.800284385681152,0.35687100887298584,-0.2513546943664551
1742766411943476700,2.134476806640625,9.800325393676758,0.35634520649909973,-0.2504962682723999
1742766411948271400,2.139271240234375,9.800379753112793,0.3549940288066864,-0.25029656291007996
1742766411953065700,2.144065673828125,9.800411224365234,0.35365021228790283,-0.2509549558162689
1742766411957860400,2.1488603515625,9.8004150390625,0.3537299335002899,-0.2507137954235077
1742766411962654700,2.15365478515625,9.800324440002441,0.35541948676109314,-0.25184404850006104
1742766411967449300,2.158449462890625,9.80025863647461,0.3567289710044861,-0.2525646686553955
1742766411972243700,2.16324365234375,9.800276756286621,0.35595905780792236,-0.2529560327529907
1742766411977038300,2.168038330078125,9.800278663635254,0.3558540344238281,-0.2530313730239868
1742766411981833000,2.1728330078125,9.80025577545166,0.3568701446056366,-0.2524685561656952
1742766411986614000,2.177614013671875,9.800261497497559,0.3568209707736969,-0.2523171007633209
1742766411991422000,2.182421875,9.800304412841797,0.35563695430755615,-0.2523210942745209
1742766411996216300,2.18721630859375,9.800345420837402,0.3544965386390686,-0.25232189893722534
1742766412001011000,2.192010986328125,9.800349235534668,0.3542756140232086,-0.25248849391937256
1742766412005805300,2.196805419921875,9.8003511428833,0.35455015301704407,-0.2520408630371094
1742766412010600000,2.201599853515625,9.800331115722656,0.3545631766319275,-0.2528116703033447
1742766412015381000,2.206381103515625,9.800331115722656,0.35461416840553284,-0.2527281641960144
1742766412020189000,2.21118896484375,9.80034065246582,0.35381436347961426,-0.25349125266075134
1742766412024983300,2.2159833984375,9.800333976745605,0.3539259731769562,-0.25355076789855957
1742766412029778000,2.22077783203125,9.800353050231934,0.35267215967178345,-0.25457313656806946
1742766412034572300,2.225572265625,9.800318717956543,0.3532378375530243,-0.2550950348377228
1742766412039367000,2.230366943359375,9.80029582977295,0.3541788160800934,-0.2546863555908203
1742766412044161300,2.235161376953125,9.800267219543457,0.3544626832008362,-0.2554128170013428
1742766412048956000,2.239955810546875,9.800257682800293,0.35447683930397034,-0.25573503971099854
1742766412053750300,2.244750244140625,9.800325393676758,0.3527851104736328,-0.25550577044487
1742766412058545000,2.249544921875,9.800345420837402,0.3522377014160156,-0.25546765327453613
1742766412063339300,2.25433935546875,9.800358772277832,0.3521055579185486,-0.25516852736473083
1742766412068134000,2.2591337890625,9.800358772277832,0.3519313633441925,-0.25539493560791016
1742766412072928300,2.26392822265625,9.80035400390625,0.3520028293132782,-0.25546905398368835
1742766412077723000,2.268722900390625,9.800328254699707,0.35144156217575073,-0.2572096288204193
1742766412082517200,2.273517333984375,9.800320625305176,0.3516058921813965,-0.25728389620780945
1742766412087298600,2.278298583984375,9.80036449432373,0.3500801622867584,-0.2577187716960907
1742766412092106500,2.2831064453125,9.800348281860352,0.35083186626434326,-0.2572978138923645
1742766412096900900,2.28790087890625,9.800362586975098,0.350849449634552,-0.2566995620727539
1742766412101695500,2.292695556640625,9.800383567810059,0.34998685121536255,-0.2571096122264862
1742766412106489900,2.29748974609375,9.800395011901855,0.35026514530181885,-0.2562890648841858
1742766412111284500,2.302284423828125,9.80044174194336,0.349021852016449,-0.2562086880207062
1742766412116078800,2.307078857421875,9.80046558380127,0.3486343026161194,-0.25580868124961853
1742766412120873500,2.31187353515625,9.80047607421875,0.3480924367904663,-0.2561105489730835
1742766412125667800,2.316667724609375,9.800471305847168,0.34814587235450745,-0.25625649094581604
1742766412130462500,2.32146240234375,9.800497055053711,0.3469822108745575,-0.2568616569042206
1742766412135256800,2.3262568359375,9.800481796264648,0.3466024100780487,-0.2579464614391327
1742766412140051500,2.331051513671875,9.800504684448242,0.346201628446579,-0.2576157748699188
1742766412144845800,2.335845703125,9.800481796264648,0.34648555517196655,-0.2580969035625458
1742766412149640400,2.340640380859375,9.800447463989258,0.34744611382484436,-0.25809210538864136
1742766412154434800,2.345434814453125,9.800423622131348,0.34734392166137695,-0.25913378596305847
1742766412159229400,2.3502294921875,9.800413131713867,0.3470589816570282,-0.2599214017391205
1742766412164023800,2.35502392578125,9.800468444824219,0.34581515192985535,-0.2594980299472809
1742766412168818400,2.359818359375,9.800506591796875,0.3448968231678009,-0.2592741549015045
1742766412173612800,2.36461279296875,9.800483703613281,0.34520193934440613,-0.2597097158432007
1742766412178407400,2.369407470703125,9.800432205200195,0.34623193740844727,-0.260297030210495
1742766412183201800,2.374201904296875,9.800385475158691,0.347139447927475,-0.2608628571033478
1742766412187996400,2.378996337890625,9.80038833618164,0.346506267786026,-0.2616086006164551
1742766412192790800,2.383790771484375,9.800374031066895,0.34638354182243347,-0.2623087465763092
1742766412197585400,2.38858544921875,9.800320625305176,0.3478023409843445,-0.26239216327667236
1742766412202380000,2.393380126953125,9.800267219543457,0.34832724928855896,-0.263693630695343
1742766412207174400,2.39817431640625,9.800251007080078,0.34841907024383545,-0.26419705152511597
1742766412211969000,2.402968994140625,9.800292015075684,0.34748831391334534,-0.26387229561805725
1742766412216763400,2.407763427734375,9.80030345916748,0.34782788157463074,-0.26302579045295715
1742766412221558000,2.41255810546875,9.800328254699707,0.3468921184539795,-0.26332888007164
1742766412226352400,2.417352294921875,9.800390243530273,0.34469592571258545,-0.26389262080192566
1742766412231133400,2.422133544921875,9.800405502319336,0.3439500629901886,-0.264316588640213
1742766412235941400,2.42694140625,9.800374984741211,0.34470170736312866,-0.2644652724266052
1742766412240736000,2.431736083984375,9.800325393676758,0.34518614411354065,-0.2656715512275696
1742766412245530400,2.4365302734375,9.800284385681152,0.34508809447288513,-0.26730260252952576
1742766412250325000,2.441324951171875,9.800267219543457,0.3454750180244446,-0.26742687821388245
1742766412255119400,2.446119384765625,9.800241470336914,0.34629467129707336,-0.2673022150993347
1742766412259900400,2.450900390625,9.800216674804688,0.34729063510894775,-0.26694127917289734
1742766412264708400,2.455708251953125,9.800302505493164,0.34471750259399414,-0.26711463928222656
1742766412269503000,2.4605029296875,9.800346374511719,0.3439860939979553,-0.2664344608783722
1742766412274297300,2.46529736328125,9.800349235534668,0.34342312812805176,-0.26705366373062134
1742766412279092000,2.470092041015625,9.800415992736816,0.3425479531288147,-0.26573219895362854
1742766412283886300,2.47488623046875,9.80044174194336,0.3413923978805542,-0.26625382900238037
1742766412288681000,2.479680908203125,9.80039119720459,0.3428775370121002,-0.26622751355171204
1742766412293475300,2.484475341796875,9.80037784576416,0.34279489517211914,-0.26682645082473755
1742766412298270000,2.48927001953125,9.800386428833008,0.34207212924957275,-0.26742497086524963
1742766412303064600,2.494064697265625,9.800390243530273,0.3414762616157532,-0.26805931329727173
1742766412307859000,2.49885888671875,9.80038833618164,0.3414910137653351,-0.26810112595558167
1742766412312653600,2.503653564453125,9.800349235534668,0.34287846088409424,-0.26773956418037415
1742766412317448000,2.508447998046875,9.800312995910645,0.3431260585784912,-0.26877304911613464
1742766412322242600,2.51324267578125,9.800276756286621,0.34354522824287415,-0.26956790685653687
1742766412327037000,2.518036865234375,9.800288200378418,0.34398576617240906,-0.2685742676258087
1742766412331818000,2.52281787109375,9.800276756286621,0.34415900707244873,-0.2687891721725464
1742766412336626000,2.5276259765625,9.800294876098633,0.34382134675979614,-0.2685474455356598
1742766412341420500,2.532420654296875,9.800287246704102,0.3437207043170929,-0.2689541280269623
1742766412346215000,2.53721484375,9.800237655639648,0.34462299942970276,-0.26959896087646484
1742766412351009500,2.542009521484375,9.800207138061523,0.3444928824901581,-0.27088120579719543
1742766412355804000,2.546803955078125,9.800167083740234,0.3452191948890686,-0.2714029550552368
1742766412360598500,2.5515986328125,9.800148963928223,0.34568479657173157,-0.271444171667099
1742766412365393000,2.556392822265625,9.800122261047363,0.3468228578567505,-0.27098348736763
1742766412370187500,2.5611875,9.80012321472168,0.3468688726425171,-0.27089327573776245
1742766412374982000,2.56598193359375,9.800185203552246,0.3453172743320465,-0.27061891555786133
1742766412379776500,2.570776611328125,9.800198554992676,0.34502938389778137,-0.27052435278892517
1742766412384571000,2.57557080078125,9.800159454345703,0.34573808312416077,-0.2709994912147522
1742766412389365500,2.580365478515625,9.800172805786133,0.3450738787651062,-0.27137988805770874
1742766412394159900,2.585159912109375,9.800219535827637,0.34358590841293335,-0.27158039808273315
1742766412398954500,2.58995458984375,9.80018424987793,0.34475383162498474,-0.27138552069664
1742766412403748900,2.594748779296875,9.800119400024414,0.34507614374160767,-0.27330482006073
1742766412408543500,2.59954345703125,9.800128936767578,0.34467175602912903,-0.2734905779361725
1742766412413338000,2.604338134765625,9.800122261047363,0.34390559792518616,-0.2746788263320923
1742766412418119200,2.609119140625,9.800106048583984,0.34501197934150696,-0.273843914270401
1742766412422927000,2.613927001953125,9.80010986328125,0.3450678586959839,-0.27363741397857666
1742766412427721500,2.618721435546875,9.800074577331543,0.34508517384529114,-0.27486327290534973
1742766412432515800,2.623515869140625,9.800040245056152,0.34548866748809814,-0.2755958139896393
1742766412437310500,2.628310546875,9.800025939941406,0.3455585241317749,-0.27601540088653564
1742766412442105000,2.63310498046875,9.800081253051758,0.3454105257987976,-0.27423399686813354
1742766412446899500,2.6378994140625,9.80013656616211,0.3437530994415283,-0.2743624150753021
1742766412451694000,2.642694091796875,9.800088882446289,0.34466296434402466,-0.2749045789241791
1742766412456488400,2.647488525390625,9.800056457519531,0.34472426772117615,-0.27598685026168823
1742766412461283000,2.652282958984375,9.80000114440918,0.3453063368797302,-0.2772136330604553
1742766412466077400,2.657077392578125,9.799965858459473,0.34513339400291443,-0.2786877751350403
1742766412470872000,2.6618720703125,9.799901008605957,0.34687209129333496,-0.27878645062446594
1742766412475666400,2.66666650390625,9.799826622009277,0.34775272011756897,-0.2803146243095398
1742766412480461000,2.6714609375,9.79975414276123,0.3487863540649414,-0.2815476953983307
1742766412485255400,2.67625537109375,9.799784660339355,0.3479754328727722,-0.2814875543117523
1742766412490036700,2.68103662109375,9.799814224243164,0.3474208414554596,-0.28116002678871155
1742766412494844400,2.685844482421875,9.799775123596191,0.3481304347515106,-0.28162452578544617
1742766412499639000,2.69063916015625,9.799827575683594,0.3466522693634033,-0.2816329896450043
1742766412504420000,2.695420166015625,9.799822807312012,0.3461376428604126,-0.28243762254714966
1742766412509228000,2.70022802734375,9.799769401550293,0.3476342260837555,-0.28246474266052246
1742766412514022400,2.7050224609375,9.799729347229004,0.34786659479141235,-0.2835228741168976
1742766412518803700,2.7098037109375,9.79967212677002,0.3487614393234253,-0.28444814682006836
1742766412523611400,2.714611328125,9.799596786499023,0.34998926520347595,-0.28550979495048523
1742766412528406000,2.719406005859375,9.799605369567871,0.35022202134132385,-0.2849385142326355
1742766412533200400,2.724200439453125,9.799579620361328,0.35052162408828735,-0.2854473888874054
1742766412537995000,2.7289951171875,9.79954719543457,0.3505193889141083,-0.2865579128265381
1742766412542789400,2.733789306640625,9.799554824829102,0.3504626452922821,-0.2863996624946594
1742766412547584000,2.738583984375,9.799568176269531,0.3498905897140503,-0.28661075234413147
1742766412552378600,2.743378662109375,9.79965877532959,0.3485492467880249,-0.28513067960739136
1742766412557173000,2.748173095703125,9.799723625183105,0.3471437692642212,-0.28463324904441833
1742766412561954000,2.7529541015625,9.799707412719727,0.3469705283641815,-0.2853972017765045
1742766412566762000,2.757761962890625,9.799697875976562,0.3469134569168091,-0.2858087718486786
1742766412571556600,2.762556640625,9.799631118774414,0.34769946336746216,-0.2871229648590088
1742766412576351000,2.76735107421875,9.799592018127441,0.3474457859992981,-0.28878092765808105
1742766412581145600,2.7721455078125,9.799605369567871,0.3476351797580719,-0.28809159994125366
1742766412585940000,2.77693994140625,9.799576759338379,0.34821653366088867,-0.28834328055381775
1742766412590734600,2.781734619140625,9.799568176269531,0.34784963726997375,-0.28907912969589233
1742766412595529000,2.786529052734375,9.799609184265137,0.346544474363327,-0.28924551606178284
1742766412600323600,2.791323486328125,9.799651145935059,0.3458510637283325,-0.2886804938316345
1742766412605118000,2.796117919921875,9.799631118774414,0.34588924050331116,-0.28928783535957336
1742766412609912600,2.80091259765625,9.799615859985352,0.34486353397369385,-0.2910520136356354
1742766412614707000,2.80570703125,9.799661636352539,0.3439827859401703,-0.29056787490844727
1742766412619488300,2.81048828125,9.799555778503418,0.3462323248386383,-0.29143911600112915
1742766412624296000,2.8152958984375,9.799530982971191,0.34594792127609253,-0.29261642694473267
1742766412629090600,2.820090576171875,9.799572944641113,0.34397947788238525,-0.2935332655906677
1742766412633885000,2.824885009765625,9.799534797668457,0.3443763554096222,-0.2943371832370758
1742766412638679600,2.829679443359375,9.799537658691406,0.34428495168685913,-0.29435253143310547
1742766412643474000,2.834473876953125,9.799534797668457,0.3439655900001526,-0.2948063910007477
1742766412648268500,2.8392685546875,9.799540519714355,0.3437061011791229,-0.2949361503124237
1742766412653063200,2.844063232421875,9.799627304077148,0.3420410454273224,-0.29397550225257874
1742766412657857500,2.848857421875,9.799609184265137,0.3416089415550232,-0.29508712887763977
1742766412662652200,2.853652099609375,9.799663543701172,0.34080350399017334,-0.294206827878952
1742766412667446500,2.858446533203125,9.79970645904541,0.33922168612480164,-0.29460445046424866
1742766412672241200,2.8632412109375,9.799674987792969,0.3394972085952759,-0.29532086849212646
1742766412677035500,2.868035400390625,9.799657821655273,0.33926713466644287,-0.2961605489253998
1742766412681830100,2.872830078125,9.799581527709961,0.33926722407341003,-0.29866570234298706
1742766412686624500,2.87762451171875,9.799614906311035,0.3382251262664795,-0.2987717390060425
1742766412691419100,2.882419189453125,9.799650192260742,0.33732062578201294,-0.29862287640571594
1742766412696213500,2.887213623046875,9.79964542388916,0.3375357985496521,-0.2985486090183258
1742766412701008100,2.892008056640625,9.799641609191895,0.33651864528656006,-0.2997928857803345
1742766412705802500,2.896802490234375,9.799649238586426,0.33575525879859924,-0.3004318177700043
1742766412710597000,2.90159716796875,9.799687385559082,0.3349863290786743,-0.3000160753726959
1742766412715391500,2.9063916015625,9.79966926574707,0.335633784532547,-0.2999172508716583
1742766412720172800,2.9111728515625,9.799674034118652,0.33517342805862427,-0.30025514960289
1742766412724980500,2.91598046875,9.799697875976562,0.33437293767929077,-0.30038270354270935
1742766412729775000,2.920775146484375,9.799636840820312,0.3351110816001892,-0.3015385568141937
1742766412734556200,2.92555615234375,9.799665451049805,0.33381056785583496,-0.30205437541007996
1742766412739364000,2.930364013671875,9.799651145935059,0.33290839195251465,-0.3035079538822174
1742766412744158500,2.935158447265625,9.799565315246582,0.3348425626754761,-0.3041543960571289
1742766412748953000,2.939953125,9.79953670501709,0.33545130491256714,-0.30440065264701843
1742766412753747500,2.94474755859375,9.799493789672852,0.33570656180381775,-0.30549415946006775
1742766412758542000,2.9495419921875,9.79946517944336,0.33634158968925476,-0.30573633313179016
1742766412763323100,2.9543232421875,9.799504280090332,0.3355614244937897,-0.3053075969219208
1742766412768131000,2.959131103515625,9.799501419067383,0.33533093333244324,-0.30566757917404175
1742766412772925400,2.963925537109375,9.799527168273926,0.3345961570739746,-0.30565834045410156
1742766412777706800,2.968706787109375,9.799539566040039,0.33358004689216614,-0.3063773810863495
1742766412782514400,2.973514404296875,9.799520492553711,0.33377373218536377,-0.30675196647644043
1742766412787309000,2.97830908203125,9.799513816833496,0.33346617221832275,-0.3073195517063141
1742766412792090000,2.983090087890625,9.799485206604004,0.33330872654914856,-0.3084074556827545
1742766412796898000,2.98789794921875,9.79941177368164,0.3348614573478699,-0.30902329087257385
1742766412801692700,2.992692626953125,9.799398422241211,0.3359068036079407,-0.3083188831806183
1742766412806487000,2.997487060546875,9.799416542053223,0.33589258790016174,-0.3077498972415924
1742766412811281700,3.00228173828125,9.79940128326416,0.3355146646499634,-0.3086547255516052
1742766412816076000,3.007075927734375,9.799424171447754,0.33570730686187744,-0.3077206313610077
1742766412820857000,3.011857177734375,9.799434661865234,0.3349970579147339,-0.30815955996513367
1742766412825665000,3.0166650390625,9.799474716186523,0.33482229709625244,-0.3070794343948364
1742766412830459600,3.021459716796875,9.799576759338379,0.3326886296272278,-0.3061433732509613
1742766412835240700,3.02624072265625,9.799569129943848,0.33318546414375305,-0.3058379590511322
1742766412840048600,3.031048583984375,9.799534797668457,0.3336964547634125,-0.3063994348049164
1742766412844843000,3.035843017578125,9.799538612365723,0.33252787590026855,-0.3075379431247711
1742766412849624300,3.040624267578125,9.799487113952637,0.3323419988155365,-0.3093622326850891
1742766412854432000,3.045431884765625,9.799421310424805,0.33345192670822144,-0.31025418639183044
1742766412859226600,3.0502265625,9.7993803024292,0.3351110816001892,-0.309745728969574
1742766412864007700,3.055007568359375,9.799378395080566,0.3349308669567108,-0.31001943349838257
1742766412868815600,3.059815673828125,9.799388885498047,0.3353738784790039,-0.30919161438941956
1742766412873610000,3.06460986328125,9.799457550048828,0.33401966094970703,-0.30851587653160095
1742766412878404600,3.069404541015625,9.799452781677246,0.33380126953125,-0.308867484331131
1742766412883199000,3.074198974609375,9.799417495727539,0.33482626080513,-0.30888673663139343
1742766412887993600,3.07899365234375,9.799378395080566,0.33547866344451904,-0.30944088101387024
1742766412892788000,3.0837880859375,9.79932975769043,0.3369824290275574,-0.3093327283859253
1742766412897582600,3.08858251953125,9.7992582321167,0.3379383087158203,-0.31056222319602966
1742766412902377200,3.093377197265625,9.799214363098145,0.3383888602256775,-0.3114539682865143
1742766412907171600,3.098171630859375,9.799208641052246,0.3384970426559448,-0.3115369975566864
1742766412911966200,3.10296630859375,9.799178123474121,0.3396717607975006,-0.3111717402935028
1742766412916760600,3.107760498046875,9.799178123474121,0.3403469920158386,-0.31042879819869995
1742766412921555200,3.11255517578125,9.79914379119873,0.34061095118522644,-0.31124693155288696
1742766412926349600,3.117349609375,9.79918384552002,0.3404531478881836,-0.31013914942741394
1742766412931144200,3.122144287109375,9.799214363098145,0.3393884301185608,-0.3103712201118469
1742766412935938600,3.1269384765625,9.799216270446777,0.33961570262908936,-0.31005385518074036
1742766412940733200,3.131733154296875,9.799284934997559,0.3384479582309723,-0.30914750695228577
1742766412945527600,3.136527587890625,9.799267768859863,0.3387335538864136,-0.30937451124191284
1742766412950308900,3.141308837890625,9.799208641052246,0.34035974740982056,-0.30948516726493835
1742766412955116500,3.146116455078125,9.799241065979004,0.3394804298877716,-0.30940186977386475
1742766412959911200,3.1509111328125,9.799196243286133,0.3397262692451477,-0.3105696141719818
1742766412964705500,3.15570556640625,9.799186706542969,0.3403446674346924,-0.31017225980758667
1742766412969500200,3.160500244140625,9.799199104309082,0.3411024510860443,-0.3089398741722107
1742766412974294500,3.16529443359375,9.799214363098145,0.34093084931373596,-0.30867844820022583
1742766412979089200,3.170089111328125,9.799253463745117,0.3400331437587738,-0.3084275424480438
1742766412983883500,3.174883544921875,9.799310684204102,0.33894383907318115,-0.30778443813323975
1742766412988678100,3.17967822265625,9.799321174621582,0.3386068642139435,-0.30781516432762146
1742766412993472500,3.184472412109375,9.79936408996582,0.33813047409057617,-0.306986540555954
1742766412998267100,3.18926708984375,9.799415588378906,0.33677950501441956,-0.3068169057369232
1742766413003061800,3.194061767578125,9.799371719360352,0.3382790684700012,-0.3065812587738037
1742766413007856000,3.198856201171875,9.799333572387695,0.33870986104011536,-0.3073148727416992
1742766413012650800,3.203650634765625,9.799290657043457,0.3387373685836792,-0.3086499273777008
1742766413017445000,3.208445068359375,9.799285888671875,0.3387264311313629,-0.30881989002227783
1742766413022239500,3.213239501953125,9.799247741699219,0.33955711126327515,-0.30913305282592773
1742766413027034000,3.2180341796875,9.799230575561523,0.3400217294692993,-0.3091204762458801
1742766413031828700,3.222828857421875,9.799211502075195,0.34006232023239136,-0.3097361922264099
1742766413036609800,3.22760986328125,9.799168586730957,0.34152624011039734,-0.30945080518722534
1742766413041417700,3.232417724609375,9.799193382263184,0.34111806750297546,-0.30911755561828613
1742766413046212000,3.237212158203125,9.7991943359375,0.34106239676475525,-0.3091493844985962
1742766413051006700,3.2420068359375,9.799193382263184,0.34114107489585876,-0.309108167886734
1742766413055801000,3.246801025390625,9.799178123474121,0.34163543581962585,-0.30904099345207214
1742766413060595700,3.251595703125,9.79913330078125,0.34228023886680603,-0.3097327649593353
1742766413065390000,3.25639013671875,9.799126625061035,0.34181296825408936,-0.31047961115837097
1742766413070184700,3.261184814453125,9.799102783203125,0.3417588770389557,-0.31129348278045654
1742766413074979000,3.26597900390625,9.799015998840332,0.34315288066864014,-0.31248942017555237
1742766413079773700,3.270773681640625,9.798996925354004,0.34448525309562683,-0.3116213083267212
1742766413084568000,3.275568115234375,9.7990083694458,0.34390226006507874,-0.31187739968299866
1742766413089362700,3.28036279296875,9.798964500427246,0.3449109196662903,-0.3121643662452698
1742766413094157000,3.285156982421875,9.7990083694458,0.34477296471595764,-0.31092116236686707
1742766413098951700,3.28995166015625,9.799004554748535,0.34384480118751526,-0.31205567717552185
1742766413103746000,3.29474609375,9.79906177520752,0.3425500690937042,-0.31169816851615906
1742766413108527400,3.29952734375,9.799153327941895,0.3406931161880493,-0.3108474314212799
1742766413113335000,3.3043349609375,9.799123764038086,0.3418370485305786,-0.3105301856994629
1742766413118129700,3.309129638671875,9.799138069152832,0.3410082161426544,-0.3109910786151886
1742766413122924000,3.313924072265625,9.799163818359375,0.33930128812789917,-0.31203868985176086
1742766413127718700,3.31871875,9.799163818359375,0.33919477462768555,-0.31215494871139526
1742766413132513000,3.323512939453125,9.799141883850098,0.3403339087963104,-0.3116035759449005
1742766413137307600,3.3283076171875,9.799139022827148,0.3403341770172119,-0.311697393655777
1742766413142102300,3.333102294921875,9.79915714263916,0.3389376401901245,-0.31263792514801025
1742766413146896600,3.337896728515625,9.79917049407959,0.33865219354629517,-0.3125200569629669
1742766413151691300,3.342691162109375,9.799220085144043,0.3376953899860382,-0.31202590465545654
1742766413156485600,3.347485595703125,9.799276351928711,0.3364955186843872,-0.3115578889846802
1742766413161280000,3.352280029296875,9.799335479736328,0.3344768285751343,-0.3118399679660797
1742766413166074600,3.35707470703125,9.799288749694824,0.3353007435798645,-0.3124302625656128
1742766413170869200,3.361869140625,9.799260139465332,0.33570218086242676,-0.3129071295261383
1742766413175663600,3.36666357421875,9.799230575561523,0.3356773257255554,-0.3138810694217682
1742766413180458200,3.371458251953125,9.799260139465332,0.33404576778411865,-0.314674437046051
1742766413185252600,3.376252685546875,9.79924201965332,0.3343409299850464,-0.3149094581604004
1742766413190047200,3.381047119140625,9.799198150634766,0.3357982635498047,-0.314746230840683
1742766413194828300,3.385828369140625,9.79920482635498,0.3352328836917877,-0.31513819098472595
1742766413199636200,3.39063623046875,9.79922103881836,0.33473822474479675,-0.3151562809944153
1742766413204430600,3.3954306640625,9.799296379089355,0.33342045545578003,-0.31419235467910767
1742766413209225200,3.40022509765625,9.799325942993164,0.33255115151405334,-0.31422317028045654
1742766413214019600,3.40501953125,9.79931926727295,0.3322901427745819,-0.31469786167144775
1742766413218814200,3.409814208984375,9.799407958984375,0.3308587670326233,-0.31343334913253784
1742766413223608600,3.414608642578125,9.79936408996582,0.3320143520832062,-0.3135712146759033
1742766413228403200,3.4194033203125,9.799323081970215,0.3329043686389923,-0.3139135241508484
1742766413233197600,3.424197509765625,9.799332618713379,0.3319353759288788,-0.3146623373031616
1742766413237992200,3.4289921875,9.799318313598633,0.33181068301200867,-0.3152436912059784
1742766413242786600,3.43378662109375,9.799307823181152,0.33246487379074097,-0.3148641586303711
1742766413247581200,3.438581298828125,9.79931354522705,0.33250412344932556,-0.31464460492134094
1742766413252375600,3.44337548828125,9.799307823181152,0.3324119448661804,-0.3149259686470032
1742766413257170200,3.448170166015625,9.799351692199707,0.33192065358161926,-0.3140842914581299
1742766413261964500,3.452964599609375,9.79938793182373,0.3310866355895996,-0.3138176202774048
1742766413266759200,3.45775927734375,9.799421310424805,0.3304368555545807,-0.3134597837924957
1742766413271553800,3.4625537109375,9.799423217773438,0.33039391040802,-0.313450425863266
1742766413276348200,3.46734814453125,9.79939079284668,0.3316464126110077,-0.3131411075592041
1742766413281142800,3.472142822265625,9.799371719360352,0.3319435119628906,-0.31343334913253784
1742766413285937200,3.476937255859375,9.79935073852539,0.33184027671813965,-0.31421172618865967
1742766413290731800,3.481731689453125,9.799309730529785,0.33189859986305237,-0.31540176272392273
1742766413295512800,3.486512939453125,9.799318313598633,0.3318169414997101,-0.31524112820625305
1742766413300320800,3.49132080078125,9.799271583557129,0.33299189805984497,-0.31545284390449524
1742766413305115100,3.496115234375,9.799270629882812,0.3332427740097046,-0.31520670652389526
1742766413309909800,3.50090966796875,9.799208641052246,0.3347734808921814,-0.31550830602645874
1742766413314704100,3.5057041015625,9.79920482635498,0.3349992036819458,-0.31536343693733215
1742766413319498800,3.510498779296875,9.799222946166992,0.3349883258342743,-0.3148224353790283
1742766413324279800,3.51527978515625,9.799198150634766,0.33489760756492615,-0.31573188304901123
1742766413329087700,3.520087646484375,9.799208641052246,0.3352082669734955,-0.3150276839733124
1742766413333882000,3.524882080078125,9.799137115478516,0.33573928475379944,-0.3167124390602112
1742766413338676700,3.5296767578125,9.799015045166016,0.337931752204895,-0.3181416690349579
1742766413343471000,3.53447119140625,9.799007415771484,0.33758002519607544,-0.31873181462287903
1742766413348265700,3.539265625,9.798975944519043,0.33845454454421997,-0.31881338357925415
1742766413353046800,3.544046875,9.79889965057373,0.3406664729118347,-0.3187728822231293
1742766413357854700,3.548854736328125,9.798907279968262,0.34056729078292847,-0.31864216923713684
1742766413362649000,3.553649169921875,9.798881530761719,0.3410276472568512,-0.3189567029476166
1742766413367430400,3.558430419921875,9.798863410949707,0.34149524569511414,-0.3190271556377411
1742766413372238000,3.563238037109375,9.798867225646973,0.34187597036361694,-0.31849169731140137
1742766413377032700,3.56803271484375,9.798846244812012,0.3422839641571045,-0.31870222091674805
1742766413381827300,3.572827392578125,9.798831939697266,0.3421597182750702,-0.31925126910209656
1742766413386621700,3.57762158203125,9.798803329467773,0.34323492646217346,-0.31900709867477417
1742766413391416000,3.582416015625,9.798788070678711,0.3434874713420868,-0.3191716969013214
1742766413396210700,3.587210693359375,9.798745155334473,0.3443552255630493,-0.31956446170806885
1742766413401005000,3.592005126953125,9.798694610595703,0.34492039680480957,-0.32048892974853516
1742766413405799700,3.596799560546875,9.798666954040527,0.34560468792915344,-0.3205937445163727
1742766413410594300,3.60159423828125,9.798635482788086,0.3465237021446228,-0.32057422399520874
1742766413415388700,3.606388671875,9.798611640930176,0.34717443585395813,-0.32063281536102295
1742766413420183300,3.611183349609375,9.798578262329102,0.3479423522949219,-0.3207789361476898
1742766413424977700,3.615977783203125,9.79859447479248,0.3480989336967468,-0.32012784481048584
1742766413429772300,3.620772216796875,9.798606872558594,0.348037451505661,-0.31983113288879395
1742766413434566700,3.625566650390625,9.798625946044922,0.3475131094455719,-0.31978195905685425
1742766413439361300,3.630361328125,9.798604011535645,0.3477343022823334,-0.320255845785141
1742766413444155600,3.63515576171875,9.798553466796875,0.3481476902961731,-0.3213135302066803
1742766413448950300,3.6399501953125,9.79847240447998,0.34934163093566895,-0.32250696420669556
1742766413453744600,3.64474462890625,9.79841136932373,0.35004496574401855,-0.3235856592655182
1742766413458539300,3.649539306640625,9.798393249511719,0.35129714012145996,-0.32280027866363525
1742766413463333600,3.654333740234375,9.798331260681152,0.35312700271606445,-0.32264444231987
1742766413468115000,3.659114990234375,9.798316955566406,0.3537602126598358,-0.3224252164363861
1742766413472922600,3.663922607421875,9.79835319519043,0.35297808051109314,-0.32218843698501587
1742766413477717200,3.66871728515625,9.798315048217773,0.3541976511478424,-0.3219743072986603
1742766413482511600,3.67351171875,9.798361778259277,0.3539216220378876,-0.320865273475647
1742766413487306200,3.67830615234375,9.798392295837402,0.35338810086250305,-0.3205268383026123
1742766413492100600,3.6831005859375,9.79837417602539,0.3532612919807434,-0.3212239742279053
1742766413496895200,3.687895263671875,9.7983980178833,0.3534456491470337,-0.32027262449264526
1742766413501689600,3.692689697265625,9.79836368560791,0.3531072735786438,-0.32171088457107544
1742766413506484200,3.697484130859375,9.798297882080078,0.3537601828575134,-0.3229869306087494
1742766413511278600,3.702278564453125,9.798240661621094,0.3543395400047302,-0.32408595085144043
1742766413516073200,3.7070732421875,9.79818344116211,0.3550405502319336,-0.32503870129585266
1742766413520867800,3.711867919921875,9.798161506652832,0.3557262718677521,-0.3249529302120209
1742766413525662200,3.716662109375,9.798135757446289,0.35555487871170044,-0.3259289264678955
1742766413530456600,3.72145654296875,9.798136711120605,0.3549329340457916,-0.3265485167503357
1742766413535251200,3.726251220703125,9.798168182373047,0.3543820381164551,-0.3262077271938324
1742766413540045800,3.7310458984375,9.798198699951172,0.3531123101711273,-0.3266727924346924
1742766413544840200,3.735840087890625,9.798282623291016,0.3516569137573242,-0.32574203610420227
1742766413549634800,3.740634765625,9.798345565795898,0.350891649723053,-0.32469287514686584
1742766413554429200,3.74542919921875,9.798293113708496,0.3514360189437866,-0.32565951347351074
1742766413559223800,3.750223876953125,9.798261642456055,0.3511779010295868,-0.3268856108188629
1742766413564018200,3.75501806640625,9.798248291015625,0.35015442967414856,-0.3283839523792267
1742766413568799200,3.75979931640625,9.798274040222168,0.3499751091003418,-0.32780560851097107
1742766413573607200,3.764607177734375,9.798221588134766,0.35083258152008057,-0.32845452427864075
1742766413578401800,3.76940185546875,9.798226356506348,0.35007262229919434,-0.32913506031036377
1742766413583182800,3.774182861328125,9.798284530639648,0.348185658454895,-0.3293708562850952
1742766413587990800,3.77899072265625,9.798249244689941,0.34854820370674133,-0.33004769682884216
1742766413592785200,3.78378515625,9.798263549804688,0.3485378921031952,-0.32962295413017273
1742766413597566500,3.78856640625,9.79828929901123,0.3477839231491089,-0.3296637535095215
1742766413602374100,3.7933740234375,9.79826831817627,0.34748315811157227,-0.3306121528148651
1742766413607168800,3.798168701171875,9.798263549804688,0.34753888845443726,-0.3306838572025299
1742766413611963100,3.802963134765625,9.79818058013916,0.34819555282592773,-0.33244192600250244
1742766413616757800,3.8077578125,9.798177719116211,0.34763041138648987,-0.33313244581222534
1742766413621552000,3.81255224609375,9.798131942749023,0.34852731227874756,-0.3335312306880951
1742766413626346800,3.8173466796875,9.798133850097656,0.34870749711990356,-0.33330467343330383
1742766413631141000,3.82214111328125,9.798115730285645,0.34940987825393677,-0.33309951424598694
1742766413635935700,3.826935791015625,9.798144340515137,0.3485102951526642,-0.33320125937461853
1742766413640716800,3.831716796875,9.798137664794922,0.3478434085845947,-0.3341017961502075
1742766413645524700,3.836524658203125,9.798101425170898,0.3483433425426483,-0.33463361859321594
1742766413650319400,3.8413193359375,9.798090934753418,0.3477420508861542,-0.3355520963668823
1742766413655100400,3.846100341796875,9.798152923583984,0.34678521752357483,-0.3347333073616028
1742766413659908400,3.850908447265625,9.798127174377441,0.34720855951309204,-0.3350379765033722
1742766413664702700,3.85570263671875,9.798113822937012,0.3471125662326813,-0.3355553150177002
1742766413669483800,3.86048388671875,9.79810905456543,0.3466752767562866,-0.33611199259757996
1742766413674291700,3.865291748046875,9.798072814941406,0.3472030758857727,-0.3366408050060272
1742766413679086300,3.87008642578125,9.798090934753418,0.34793490171432495,-0.33535337448120117
1742766413683880700,3.874880615234375,9.798105239868164,0.3482661247253418,-0.3346034288406372
1742766413688675300,3.87967529296875,9.798094749450684,0.3480032682418823,-0.3351726233959198
1742766413693469700,3.8844697265625,9.798121452331543,0.34703850746154785,-0.3353942334651947
1742766413698264300,3.889264404296875,9.798102378845215,0.34771493077278137,-0.3352627754211426
1742766413703058700,3.89405859375,9.798124313354492,0.3482917547225952,-0.3340269923210144
1742766413707853300,3.898853271484375,9.798192024230957,0.34750884771347046,-0.33282995223999023
1742766413712634400,3.90363427734375,9.798182487487793,0.3479022979736328,-0.3327200412750244
1742766413717442300,3.9084423828125,9.798213005065918,0.34736138582229614,-0.33236151933670044
1742766413722236700,3.913236572265625,9.798215866088867,0.3470499515533447,-0.33261263370513916
1742766413727031300,3.91803125,9.79813003540039,0.34831103682518005,-0.3338244557380676
1742766413731825700,3.92282568359375,9.798077583312988,0.3496343195438385,-0.33398669958114624
1742766413736620300,3.927620361328125,9.797990798950195,0.35117632150650024,-0.3349023461341858
1742766413741414700,3.93241455078125,9.797911643981934,0.35263022780418396,-0.3356788456439972
1742766413746209300,3.937209228515625,9.797921180725098,0.35255515575408936,-0.3354831635951996
1742766413751003600,3.942003662109375,9.797895431518555,0.35285601019859314,-0.3359159827232361
1742766413755798300,3.94679833984375,9.797880172729492,0.3534408211708069,-0.33574965596199036
1742766413760592600,3.951592529296875,9.79787826538086,0.35331135988235474,-0.33592718839645386
1742766413765387300,3.95638720703125,9.797880172729492,0.35304024815559387,-0.3361937999725342
1742766413770181600,3.961181640625,9.797856330871582,0.35366374254226685,-0.33622071146965027
1742766413774976300,3.965976318359375,9.797808647155762,0.3544819951057434,-0.3367486596107483
1742766413779770600,3.9707705078125,9.797786712646484,0.35420554876327515,-0.3376829922199249
1742766413784565200,3.975565185546875,9.797733306884766,0.3550466001033783,-0.33834367990493774
1742766413789359900,3.98035986328125,9.797722816467285,0.35585901141166687,-0.3377911448478699
1742766413794154200,3.985154296875,9.797713279724121,0.3566613793373108,-0.3372230529785156
1742766413798948900,3.989948974609375,9.797722816467285,0.35686740279197693,-0.3367149829864502
1742766413803743200,3.9947431640625,9.797759056091309,0.3564194440841675,-0.33615267276763916
1742766413808537900,3.999537841796875,9.797768592834473,0.3563368022441864,-0.3359352648258209
1742766413813319000,4.00431884765625,9.797781944274902,0.35663360357284546,-0.33524295687675476
1742766413818126800,4.009126953125,9.797874450683594,0.35513967275619507,-0.33411115407943726
1742766413822921200,4.013921142578125,9.797880172729492,0.35504448413848877,-0.3340562582015991
1742766413827702300,4.018702392578125,9.797842025756836,0.3557661175727844,-0.33441710472106934
1742766413832510200,4.02351025390625,9.797840118408203,0.3552805185317993,-0.3349807858467102
1742766413837304800,4.028304931640625,9.797808647155762,0.35577231645584106,-0.3353666365146637
1742766413842099200,4.03309912109375,9.797772407531738,0.3564908802509308,-0.33566489815711975
1742766413846893800,4.037893798828125,9.797747611999512,0.3566685914993286,-0.33621010184288025
1742766413851688200,4.042688232421875,9.797686576843262,0.35716480016708374,-0.337467759847641
1742766413856482800,4.04748291015625,9.79768180847168,0.35702359676361084,-0.33775201439857483
1742766413861277200,4.052277099609375,9.797707557678223,0.3561978340148926,-0.3378834128379822
1742766413866071800,4.05707177734375,9.797651290893555,0.35643628239631653,-0.3392629623413086
1742766413870866200,4.0618662109375,9.79763412475586,0.356828510761261,-0.3393246531486511
1742766413875660800,4.066660888671875,9.79761028289795,0.3572276532649994,-0.33958908915519714
1742766413880455200,4.071455078125,9.797593116760254,0.3580421805381775,-0.339236319065094
1742766413885249800,4.076249755859375,9.797661781311035,0.3571372628211975,-0.338223397731781
1742766413890044200,4.081044189453125,9.797600746154785,0.35729435086250305,-0.33978939056396484
1742766413894838800,4.0858388671875,9.797557830810547,0.358305960893631,-0.33998188376426697
1742766413899633200,4.090633056640625,9.797555923461914,0.35858872532844543,-0.33974453806877136
1742766413904427800,4.095427734375,9.797586441040039,0.35868456959724426,-0.3387557864189148
1742766413909222100,4.10022216796875,9.797588348388672,0.3591498136520386,-0.3382096588611603
1742766413914016800,4.105016845703125,9.797603607177734,0.3590233027935028,-0.337901771068573
1742766413918811400,4.109811279296875,9.797638893127441,0.3582364320755005,-0.33770567178726196
1742766413923605800,4.114605712890625,9.797646522521973,0.35809779167175293,-0.33764025568962097
1742766413928400400,4.119400390625,9.797718048095703,0.3576010763645172,-0.33608007431030273
1742766413933194800,4.12419482421875,9.797738075256348,0.3580365777015686,-0.33503714203834534
1742766413937989000,4.128989013671875,9.797672271728516,0.3592594861984253,-0.33562883734703064
1742766413942783700,4.13378369140625,9.797706604003906,0.3580321669578552,-0.3359559178352356
1742766413947578400,4.138578369140625,9.797738075256348,0.35704341530799866,-0.33611229062080383
1742766413952372700,4.143372802734375,9.797691345214844,0.3584586977958679,-0.33594653010368347
1742766413957167400,4.14816748046875,9.797704696655273,0.3590470850467682,-0.3349342942237854
1742766413961961700,4.152961669921875,9.797723770141602,0.3586081862449646,-0.33483415842056274
1742766413966756400,4.15775634765625,9.797796249389648,0.35700783133506775,-0.3344273567199707
1742766413971537400,4.162537353515625,9.797867774963379,0.35583817958831787,-0.33356788754463196
1742766413976345300,4.167345458984375,9.797880172729492,0.35560572147369385,-0.3334713578224182
1742766413981139700,4.1721396484375,9.797924995422363,0.3553939163684845,-0.332358717918396
1742766413985921000,4.176921142578125,9.79800033569336,0.3539322018623352,-0.33171704411506653
1742766413990728700,4.181728759765625,9.798007011413574,0.35420000553131104,-0.3312276303768158
1742766413995523300,4.1865234375,9.798052787780762,0.3529409170150757,-0.33120888471603394
1742766414000317700,4.191317626953125,9.798084259033203,0.35168227553367615,-0.3316245675086975
1742766414005112300,4.1961123046875,9.798094749450684,0.3516429662704468,-0.3313567042350769
1742766414009906700,4.20090673828125,9.798123359680176,0.3517686426639557,-0.330380916595459
1742766414014701300,4.205701416015625,9.79811954498291,0.35240262746810913,-0.3298097550868988
1742766414019495700,4.21049560546875,9.798118591308594,0.3526838421821594,-0.32953977584838867
1742766414024290300,4.215290283203125,9.798145294189453,0.3523145616054535,-0.3291453421115875
1742766414029071400,4.2200712890625,9.798195838928223,0.35126495361328125,-0.3287607431411743
1742766414033879300,4.22487939453125,9.798172950744629,0.35172080993652344,-0.328961580991745
1742766414038673700,4.229673583984375,9.798226356506348,0.3511117696762085,-0.3280322253704071
1742766414043468300,4.23446826171875,9.798239707946777,0.35103604197502136,-0.3276882469654083
1742766414048262700,4.2392626953125,9.798262596130371,0.35064104199409485,-0.32744044065475464
1742766414053057300,4.244057373046875,9.798274040222168,0.34942421317100525,-0.32840433716773987
1742766414057852000,4.248851806640625,9.798257827758789,0.3494226932525635,-0.3288756012916565
1742766414062646300,4.253646240234375,9.798247337341309,0.3503798544406891,-0.328180193901062
1742766414067440600,4.258440673828125,9.798233032226562,0.3509197235107422,-0.3280172646045685
1742766414072235300,4.2632353515625,9.798219680786133,0.35108739137649536,-0.3282495141029358
1742766414077030000,4.26802978515625,9.798245429992676,0.3506813943386078,-0.3279127776622772
1742766414081824300,4.27282421875,9.798276901245117,0.35005688667297363,-0.3276131749153137
1742766414086605300,4.277605224609375,9.798280715942383,0.35016027092933655,-0.3273966312408447
1742766414091413200,4.282413330078125,9.798287391662598,0.3496626019477844,-0.3277193605899811
1742766414096208000,4.287207763671875,9.798341751098633,0.3485245406627655,-0.3273259401321411
1742766414101002200,4.292002197265625,9.798328399658203,0.3491058051586151,-0.3270847499370575
1742766414105796900,4.296796875,9.798298835754395,0.34876716136932373,-0.3283482789993286
1742766414110591200,4.30159130859375,9.798324584960938,0.3472232520580292,-0.3292141854763031
1742766414115385900,4.3063857421875,9.798277854919434,0.3477041721343994,-0.330076664686203
1742766414120180200,4.31118017578125,9.798269271850586,0.3490382134914398,-0.32895568013191223
1742766414124974800,4.315974853515625,9.798264503479004,0.3491317927837372,-0.32899096608161926
1742766414129769200,4.320769287109375,9.79824447631836,0.3493117690086365,-0.3294008672237396
1742766414134563800,4.325563720703125,9.798284530639648,0.3488856852054596,-0.32864832878112793
1742766414139358200,4.330358154296875,9.798298835754395,0.3487553298473358,-0.3283558785915375
1742766414144152800,4.33515283203125,9.79831600189209,0.3485985994338989,-0.3280127942562103
1742766414148947200,4.339947265625,9.798364639282227,0.3475785255432129,-0.3276553153991699
1742766414153741800,4.344741943359375,9.798331260681152,0.3484934866428375,-0.3276551067829132
1742766414158523000,4.34952294921875,9.798253059387207,0.350271612405777,-0.32809656858444214
1742766414163330800,4.354330810546875,9.798209190368652,0.3506332337856293,-0.3290362060070038
1742766414168125200,4.359125244140625,9.798152923583984,0.3506464958190918,-0.33068084716796875
1742766414172919800,4.363919921875,9.798094749450684,0.35203617811203003,-0.3309333324432373
1742766414177714200,4.368714111328125,9.798040390014648,0.35320326685905457,-0.3313055634498596
1742766414182508800,4.3735087890625,9.798025131225586,0.35364004969596863,-0.33129119873046875
1742766414187303400,4.378303466796875,9.797987937927246,0.3542857766151428,-0.33169594407081604
1742766414192097800,4.383097900390625,9.797988891601562,0.35419464111328125,-0.3317808210849762
1742766414196892200,4.38789208984375,9.797994613647461,0.35426920652389526,-0.33151522278785706
1742766414201673500,4.392673583984375,9.798022270202637,0.3542877733707428,-0.3306906223297119
1742766414206481200,4.397481201171875,9.798053741455078,0.3533996343612671,-0.33069509267807007
1742766414211275800,4.40227587890625,9.797978401184082,0.3550882935523987,-0.33112603425979614
1742766414216070400,4.4070703125,9.79797077178955,0.35540375113487244,-0.3310132920742035
1742766414220864800,4.41186474609375,9.797968864440918,0.35508227348327637,-0.33140429854393005
1742766414225659400,4.416659423828125,9.797921180725098,0.35626429319381714,-0.33155304193496704
1742766414230453800,4.421453857421875,9.797883987426758,0.3578793704509735,-0.3309239447116852
1742766414235248400,4.426248291015625,9.797901153564453,0.3579564690589905,-0.3303244709968567
1742766414240042800,4.431042724609375,9.797924041748047,0.35779234766960144,-0.3298256993293762
1742766414244823800,4.43582373046875,9.797966957092285,0.35803499817848206,-0.3282671570777893
1742766414249631700,4.4406318359375,9.79800033569336,0.35779309272766113,-0.32754775881767273
1742766414254426400,4.44542626953125,9.798035621643066,0.3571859300136566,-0.3271547853946686
1742766414259220700,4.450220703125,9.798116683959961,0.35593822598457336,-0.32605230808258057
1742766414264015400,4.455015380859375,9.798124313354492,0.3567718267440796,-0.3249432146549225
1742766414268809700,4.459809814453125,9.798080444335938,0.3579030930995941,-0.32499340176582336
1742766414273604400,4.464604248046875,9.798127174377441,0.35708892345428467,-0.3245053291320801
1742766414278398700,4.469398681640625,9.798115730285645,0.35661301016807556,-0.32538560032844543
1742766414283193300,4.474193359375,9.79806900024414,0.35803499817848206,-0.32520759105682373
1742766414287987700,4.47898779296875,9.798059463500977,0.35905197262763977,-0.32439178228378296
1742766414292782300,4.4837822265625,9.798029899597168,0.35950666666030884,-0.32477113604545593
1742766414297576700,4.48857666015625,9.79800796508789,0.3600754141807556,-0.32480353116989136
1742766414302371300,4.493371337890625,9.79799747467041,0.36032065749168396,-0.324862539768219
1742766414307165700,4.498165771484375,9.797932624816895,0.36183449625968933,-0.32513418793678284
1742766414311960300,4.502960205078125,9.797948837280273,0.36135515570640564,-0.3251642882823944
1742766414316741400,4.507741455078125,9.79800796508789,0.360230028629303,-0.32461467385292053
1742766414321549300,4.51254931640625,9.797994613647461,0.3609628975391388,-0.3242040276527405
1742766414326343700,4.51734375,9.797926902770996,0.3623802661895752,-0.32469069957733154
1742766414331125000,4.522125,9.797943115234375,0.3615110218524933,-0.3251723349094391
1742766414335932700,4.5269326171875,9.79794979095459,0.36166396737098694,-0.3247794806957245
1742766414340727300,4.531727294921875,9.797937393188477,0.3631901443004608,-0.32346242666244507
1742766414345521700,4.536521728515625,9.797926902770996,0.3634609580039978,-0.32345178723335266
1742766414350316300,4.54131640625,9.797961235046387,0.3631872534751892,-0.3227146565914154
1742766414355111000,4.54611083984375,9.797994613647461,0.36273324489593506,-0.32225969433784485
1742766414359905300,4.5509052734375,9.797998428344727,0.3628440499305725,-0.32198649644851685
1742766414364700000,4.555699951171875,9.798036575317383,0.36281201243400574,-0.3208579421043396
1742766414369494300,4.560494384765625,9.798103332519531,0.36193346977233887,-0.3198227882385254
1742766414374275300,4.565275390625,9.798163414001465,0.36096152663230896,-0.3190884590148926
1742766414379083300,4.570083251953125,9.798139572143555,0.3611818253993988,-0.31954988837242126
1742766414383878000,4.5748779296875,9.798195838928223,0.3602617681026459,-0.318886399269104
1742766414388672300,4.57967236328125,9.798250198364258,0.35859447717666626,-0.3190595805644989
1742766414393467000,4.584466796875,9.798218727111816,0.358896404504776,-0.319724440574646
1742766414398261200,4.58926123046875,9.798271179199219,0.3584713637828827,-0.3185580372810364
1742766414403042300,4.594042236328125,9.798294067382812,0.3583550453186035,-0.31801503896713257
1742766414407850200,4.598850341796875,9.798283576965332,0.35904157161712646,-0.31753864884376526
1742766414412644900,4.603644775390625,9.798361778259277,0.35741421580314636,-0.3169761896133423
1742766414417439200,4.608439208984375,9.798369407653809,0.35669273138046265,-0.31753531098365784
1742766414422233900,4.61323388671875,9.79836368560791,0.35652780532836914,-0.3178942799568176
1742766414427028200,4.6180283203125,9.798407554626465,0.3555806279182434,-0.3176290690898895
1742766414431822800,4.62282275390625,9.798378944396973,0.355745792388916,-0.31831151247024536
1742766414436617200,4.6276171875,9.79830551147461,0.3568722903728485,-0.31930574774742126
1742766414441411800,4.632411865234375,9.798216819763184,0.35748356580734253,-0.321333646774292
1742766414446193000,4.63719287109375,9.798203468322754,0.35764744877815247,-0.3215804994106293
1742766414451000800,4.642000732421875,9.798203468322754,0.3587087094783783,-0.32037580013275146
1742766414455795200,4.646795166015625,9.79814624786377,0.35984158515930176,-0.32088619470596313
1742766414460589800,4.65158984375,9.798087120056152,0.3610421121120453,-0.32130318880081177
1742766414465384200,4.65638427734375,9.79810905456543,0.3610023260116577,-0.3206990957260132
1742766414470178800,4.6611787109375,9.798118591308594,0.36025017499923706,-0.3212418258190155
1742766414474960000,4.6659599609375,9.798110008239746,0.3606196641921997,-0.32107993960380554
1742766414479767800,4.670767822265625,9.79816722869873,0.35963019728660583,-0.3204633593559265
1742766414484562400,4.6755625,9.798185348510742,0.3594159483909607,-0.3201277256011963
1742766414489356800,4.680356689453125,9.798173904418945,0.3592570424079895,-0.3206748068332672
1742766414494151400,4.6851513671875,9.798123359680176,0.35983723402023315,-0.32157108187675476
1742766414498945800,4.68994580078125,9.798089981079102,0.3606889843940735,-0.3216186463832855
1742766414503740200,4.694740234375,9.798032760620117,0.362027645111084,-0.3218565285205841
1742766414508534800,4.69953466796875,9.798027038574219,0.36250150203704834,-0.3215135931968689
1742766414513329400,4.704329345703125,9.798023223876953,0.36242762207984924,-0.32169151306152344
1742766414518110500,4.7091103515625,9.797999382019043,0.36323282122612,-0.3215150833129883
1742766414522918400,4.71391845703125,9.79808235168457,0.362028032541275,-0.320353239774704
1742766414527712800,4.718712646484375,9.79817008972168,0.3600877821445465,-0.3198687434196472
1742766414532507400,4.72350732421875,9.79819393157959,0.3594583570957184,-0.3198206424713135
1742766414537301800,4.7283017578125,9.798230171203613,0.3593134582042694,-0.3188818395137787
1742766414542096400,4.733096435546875,9.79820442199707,0.359909325838089,-0.3189990520477295
1742766414546890800,4.737890869140625,9.798218727111816,0.3593941926956177,-0.3191547989845276
1742766414551685400,4.742685302734375,9.798190116882324,0.3589971959590912,-0.3204635977745056
1742766414556479700,4.747479736328125,9.798151969909668,0.35976532101631165,-0.32077527046203613
1742766414561274400,4.7522744140625,9.798078536987305,0.36143699288368225,-0.3211447298526764
1742766414566068700,4.75706884765625,9.7980318069458,0.36142510175704956,-0.3225710988044739
1742766414570863400,4.76186328125,9.798036575317383,0.36084502935409546,-0.3230891525745392
1742766414575657700,4.76665771484375,9.797992706298828,0.36162257194519043,-0.32354360818862915
1742766414580452400,4.771452392578125,9.7979736328125,0.36175891757011414,-0.3239555358886719
1742766414585246700,4.776246826171875,9.797982215881348,0.36195579171180725,-0.32347097992897034
1742766414590028000,4.781028076171875,9.797965049743652,0.3619327247142792,-0.3240189254283905
1742766414594835700,4.785835693359375,9.79798698425293,0.3618946373462677,-0.3234201967716217
1742766414599630300,4.79063037109375,9.797937393188477,0.36273133754730225,-0.3239664137363434
1742766414604424700,4.7954248046875,9.797918319702148,0.36248141527175903,-0.32483023405075073
1742766414609219300,4.80021923828125,9.797865867614746,0.3632447421550751,-0.3255404829978943
1742766414614013700,4.805013671875,9.797844886779785,0.3640953302383423,-0.325235515832901
1742766414618795000,4.809794921875,9.797804832458496,0.36502304673194885,-0.32541441917419434
1742766414623602700,4.814602783203125,9.797840118408203,0.3641433119773865,-0.32533353567123413
1742766414628397300,4.819397216796875,9.797826766967773,0.3643050193786621,-0.3255447745323181
1742766414633191700,4.824191650390625,9.79784107208252,0.3640080392360687,-0.32545027136802673
1742766414637986300,4.828986328125,9.797872543334961,0.36348405480384827,-0.3250974714756012
1742766414642781000,4.833781005859375,9.79787826538086,0.3634481728076935,-0.32494601607322693
1742766414647575300,4.8385751953125,9.797898292541504,0.36337387561798096,-0.32444316148757935
1742766414652370000,4.843369873046875,9.797865867614746,0.363944411277771,-0.3247781991958618
1742766414657164300,4.848164306640625,9.797858238220215,0.3631647229194641,-0.32585814595222473
1742766414661959000,4.852958984375,9.797883987426758,0.36212781071662903,-0.32625773549079895
1742766414666753300,4.857753173828125,9.797865867614746,0.3623485267162323,-0.3265538215637207
1742766414671548000,4.8625478515625,9.797846794128418,0.36328744888305664,-0.3261014521121979
1742766414676342300,4.86734228515625,9.79785442352295,0.3627060055732727,-0.3264949321746826
1742766414681137000,4.872136962890625,9.797836303710938,0.3622065484523773,-0.3276106119155884
1742766414685931300,4.87693115234375,9.797807693481445,0.3626343607902527,-0.3279908001422882
1742766414690726000,4.881725830078125,9.79780101776123,0.3625185191631317,-0.32832071185112
1742766414695520300,4.886520263671875,9.797818183898926,0.36200329661369324,-0.32837629318237305
1742766414700315000,4.89131494140625,9.797807693481445,0.36150383949279785,-0.3292161226272583
1742766414705109200,4.896109130859375,9.797748565673828,0.3620685935020447,-0.3303678035736084
1742766414709904000,4.90090380859375,9.797722816467285,0.3619212806224823,-0.33128681778907776
1742766414714698200,4.9056982421875,9.797672271728516,0.3619079887866974,-0.3327801525592804
1742766414719492900,4.910492919921875,9.797625541687012,0.36228957772254944,-0.3337394595146179
1742766414724287200,4.915287353515625,9.797558784484863,0.36380574107170105,-0.3340618312358856
1742766414729081900,4.920081787109375,9.797494888305664,0.3654043674468994,-0.33420106768608093
1742766414733876200,4.924876220703125,9.797492980957031,0.36478158831596375,-0.33492815494537354
1742766414738670800,4.9296708984375,9.79746150970459,0.36507633328437805,-0.33553123474121094
1742766414743465200,4.93446533203125,9.797430992126465,0.3654422461986542,-0.33601707220077515
1742766414748259800,4.939259765625,9.797422409057617,0.3655087649822235,-0.33619970083236694
1742766414753054200,4.94405419921875,9.79741096496582,0.3653854727745056,-0.33667370676994324
1742766414757848800,4.948848876953125,9.79743766784668,0.3652055263519287,-0.33606797456741333
1742766414762643200,4.953643310546875,9.79739761352539,0.3658340275287628,-0.33655786514282227
1742766414767437800,4.958437744140625,9.797334671020508,0.3662921190261841,-0.33789539337158203
1742766414772232200,4.963232177734375,9.797316551208496,0.3657863736152649,-0.33896130323410034
1742766414777026800,4.96802685546875,9.797296524047852,0.3662390410900116,-0.33903834223747253
1742766414781821400,4.972821533203125,9.79723072052002,0.3677574396133423,-0.3393031358718872
1742766414786615800,4.97761572265625,9.797205924987793,0.36836495995521545,-0.3393789231777191
1742766414791396900,4.98239697265625,9.797237396240234,0.3673967719078064,-0.3395291864871979
1742766414796204800,4.987204833984375,9.79720401763916,0.36771145462989807,-0.34014880657196045
1742766414800999200,4.991999267578125,9.797245979309082,0.3668422996997833,-0.33985966444015503
1742766414805793800,4.996793701171875,9.797271728515625,0.3657624423503876,-0.3402712345123291
1742766414810588400,5.00158837890625,9.797279357910156,0.3660260736942291,-0.3397870659828186
1742766414815382800,5.0063828125,9.797304153442383,0.3657374680042267,-0.33937567472457886
1742766414820163800,5.011163818359375,9.79726505279541,0.36554834246635437,-0.3407127857208252
1742766414824971800,5.0159716796875,9.797208786010742,0.3655943274497986,-0.3422516882419586
1742766414829766400,5.020766357421875,9.797173500061035,0.3658883273601532,-0.342977374792099
1742766414834560800,5.025560791015625,9.797147750854492,0.36705172061920166,-0.3424600660800934
1742766414839355400,5.03035546875,9.797148704528809,0.36751118302345276,-0.3419378697872162
1742766414844149800,5.035149658203125,9.797152519226074,0.36720559000968933,-0.34214234352111816
1742766414848944400,5.0399443359375,9.797143936157227,0.36709731817245483,-0.34253546595573425
1742766414853738800,5.04473876953125,9.797142028808594,0.36715131998062134,-0.34253445267677307
1742766414858533400,5.049533447265625,9.79715633392334,0.3665923476219177,-0.3427039384841919
1742766414863327700,5.05432763671875,9.797159194946289,0.3659141957759857,-0.3433507978916168
1742766414868122400,5.059122314453125,9.7971830368042,0.36600926518440247,-0.34257903695106506
1742766414872916700,5.063916748046875,9.797148704528809,0.36638712882995605,-0.3431289494037628
1742766414877711400,5.06871142578125,9.79711627960205,0.36670631170272827,-0.3437282145023346
1742766414882505700,5.073505615234375,9.797115325927734,0.3665772080421448,-0.34388455748558044
1742766414887300400,5.07830029296875,9.797100067138672,0.36716604232788086,-0.3437095880508423
1742766414892094700,5.0830947265625,9.797045707702637,0.36863115429878235,-0.3436795175075531
1742766414896889300,5.087889404296875,9.797079086303711,0.36852437257766724,-0.34282344579696655
1742766414901683700,5.09268359375,9.797089576721191,0.36786532402038574,-0.34323441982269287
1742766414906478300,5.097478271484375,9.797061920166016,0.3683665692806244,-0.34347882866859436
1742766414911273000,5.10227294921875,9.797067642211914,0.3683210611343384,-0.34340304136276245
1742766414916067300,5.1070673828125,9.797126770019531,0.36721399426460266,-0.3428823947906494
1742766414920861700,5.11186181640625,9.79713249206543,0.3672349154949188,-0.34270116686820984
1742766414925656300,5.11665625,9.797143936157227,0.36776116490364075,-0.3417985737323761
1742766414930450700,5.12145068359375,9.797134399414062,0.3668540418148041,-0.34303778409957886
1742766414935245300,5.126245361328125,9.797112464904785,0.36611977219581604,-0.34445080161094666
1742766414940040000,5.1310400390625,9.797115325927734,0.3657006025314331,-0.3448237478733063
1742766414944834300,5.135834228515625,9.797102928161621,0.36639127135276794,-0.3444443643093109
1742766414949629000,5.14062890625,9.797088623046875,0.36650723218917847,-0.3447217643260956
1742766414954423300,5.14542333984375,9.797157287597656,0.3653821349143982,-0.34396693110466003
1742766414959217700,5.1502177734375,9.797158241271973,0.36511632800102234,-0.344219446182251
1742766414964012300,5.15501220703125,9.797185897827148,0.3650408983230591,-0.34349820017814636
1742766414968807000,5.159806884765625,9.797270774841309,0.36440038681030273,-0.34175553917884827
1742766414973601300,5.164601318359375,9.797309875488281,0.3635273277759552,-0.3415766656398773
1742766414978382600,5.169382568359375,9.797301292419434,0.3639927804470062,-0.3413323163986206
1742766414983190300,5.174190185546875,9.797319412231445,0.3626151382923126,-0.3422698378562927
1742766414987985000,5.17898486328125,9.797314643859863,0.3624225854873657,-0.3426172137260437
1742766414992779300,5.183779296875,9.797306060791016,0.36164817214012146,-0.34366482496261597
1742766414997574000,5.188573974609375,9.797309875488281,0.362385630607605,-0.34277600049972534
1742766415002368300,5.1933681640625,9.797282218933105,0.36386775970458984,-0.34201401472091675
1742766415007163000,5.198162841796875,9.797269821166992,0.36416301131248474,-0.34205329418182373
1742766415011957200,5.202957275390625,9.797320365905762,0.36336156725883484,-0.3414447009563446
1742766415016751900,5.207751953125,9.797337532043457,0.36338531970977783,-0.34095385670661926
1742766415021533000,5.212532958984375,9.797320365905762,0.3643763065338135,-0.34037891030311584
1742766415026340900,5.2173408203125,9.797351837158203,0.36354994773864746,-0.34033504128456116
1742766415031135200,5.22213525390625,9.797380447387695,0.36277052760124207,-0.3403540849685669
1742766415035929900,5.226929931640625,9.797385215759277,0.36349257826805115,-0.3394341468811035
1742766415040724200,5.23172412109375,9.797358512878418,0.3639267683029175,-0.33975836634635925
1742766415045518800,5.236518798828125,9.797323226928711,0.36418598890304565,-0.34050339460372925
1742766415050313200,5.241313232421875,9.797348976135254,0.3638293743133545,-0.3401305377483368
1742766415055107800,5.24610791015625,9.797330856323242,0.36477357149124146,-0.3396265506744385
1742766415059902200,5.250902099609375,9.797319412231445,0.3655802309513092,-0.33910489082336426
1742766415064696800,5.25569677734375,9.797324180603027,0.3654083013534546,-0.33913907408714294
1742766415069491200,5.2604912109375,9.79735279083252,0.36568787693977356,-0.33801233768463135
1742766415074285800,5.265285888671875,9.79733657836914,0.3658578097820282,-0.3383166491985321
1742766415079067000,5.27006689453125,9.797369003295898,0.36586833000183105,-0.3373486399650574
1742766415083874800,5.274874755859375,9.797417640686035,0.36483797430992126,-0.33707916736602783
1742766415088669200,5.279669189453125,9.797426223754883,0.3652477562427521,-0.33634597063064575
1742766415093450500,5.284450439453125,9.797430038452148,0.36540815234184265,-0.33607760071754456
1742766415098258200,5.289258056640625,9.797460556030273,0.3649758994579315,-0.33566156029701233
1742766415103052800,5.294052734375,9.797484397888184,0.3647215664386749,-0.33524224162101746
1742766415107847400,5.298847412109375,9.797487258911133,0.3652536869049072,-0.3345767557621002
1742766415112641800,5.303641845703125,9.797443389892578,0.3662998676300049,-0.3347262144088745
1742766415117436400,5.3084365234375,9.797457695007324,0.3660080134868622,-0.33461883664131165
1742766415122230800,5.313230712890625,9.79748821258545,0.365479052066803,-0.334293931722641
1742766415127025400,5.318025390625,9.79747486114502,0.36559420824050903,-0.33455890417099
1742766415131819800,5.32281982421875,9.797457695007324,0.3661777377128601,-0.33444392681121826
1742766415136600800,5.327600830078125,9.797503471374512,0.36526018381118774,-0.3340776562690735
1742766415141408800,5.33240869140625,9.79747486114502,0.3657728135585785,-0.33438050746917725
1742766415146203400,5.337203369140625,9.797409057617188,0.36792874336242676,-0.3339442312717438
1742766415150984400,5.341984375,9.79738998413086,0.36789748072624207,-0.3345375657081604
1742766415155792400,5.34679248046875,9.797371864318848,0.36756443977355957,-0.3354244530200958
1742766415160586800,5.351586669921875,9.797314643859863,0.3679616153240204,-0.3366595208644867
1742766415165368000,5.3563681640625,9.797295570373535,0.36896005272865295,-0.33612391352653503
1742766415170175700,5.36117578125,9.797228813171387,0.3703824579715729,-0.33650240302085876
1742766415174970400,5.365970458984375,9.797243118286133,0.3703565299510956,-0.33611053228378296
1742766415179764700,5.3707646484375,9.797245979309082,0.3704869747161865,-0.33589068055152893
1742766415184559400,5.375559326171875,9.797188758850098,0.37129902839660645,-0.3366589844226837
1742766415189353700,5.380353759765625,9.79725456237793,0.37078428268432617,-0.33530157804489136
1742766415194135000,5.385135009765625,9.797353744506836,0.368921160697937,-0.33447009325027466
1742766415198942700,5.389942626953125,9.797292709350586,0.3700813055038452,-0.3349608778953552
1742766415203737300,5.3947373046875,9.797266006469727,0.37053772807121277,-0.3352269232273102
1742766415208531700,5.39953173828125,9.797283172607422,0.37000125646591187,-0.33535856008529663
1742766415213326300,5.404326416015625,9.797280311584473,0.3698270618915558,-0.3356073200702667
1742766415218120700,5.40912060546875,9.79730224609375,0.37036338448524475,-0.3343892991542816
1742766415222915300,5.413915283203125,9.797307014465332,0.3706468939781189,-0.333909809589386
1742766415227709700,5.418709716796875,9.797314643859863,0.37094345688819885,-0.3333747386932373
1742766415232504300,5.42350439453125,9.797388076782227,0.36989206075668335,-0.33238667249679565
1742766415237299000,5.428298828125,9.797423362731934,0.3692614734172821,-0.3320382535457611
1742766415242093300,5.43309326171875,9.797466278076172,0.3687150180339813,-0.3313843905925751
1742766415246887700,5.4378876953125,9.797555923461914,0.3675466477870941,-0.3300252854824066
1742766415251682300,5.442682373046875,9.797590255737305,0.3675086200237274,-0.3290388584136963
1742766415256476700,5.4474765625,9.79758358001709,0.36803174018859863,-0.32864969968795776
1742766415261271300,5.452271240234375,9.79759407043457,0.3675726652145386,-0.32886210083961487
1742766415266066000,5.45706591796875,9.797565460205078,0.3672996759414673,-0.33002588152885437
1742766415270860300,5.4618603515625,9.797564506530762,0.3676329553127289,-0.32968035340309143
1742766415275655000,5.466655029296875,9.797591209411621,0.3675124943256378,-0.3290131986141205
1742766415280449300,5.47144921875,9.797521591186523,0.3690338730812073,-0.32938113808631897
1742766415285244000,5.476243896484375,9.797526359558105,0.3695630431175232,-0.3286477327346802
1742766415290038300,5.481038330078125,9.797521591186523,0.36959272623062134,-0.3287366032600403
1742766415294819300,5.4858193359375,9.7974853515625,0.3709729313850403,-0.32827961444854736
1742766415299627300,5.490627197265625,9.797491073608398,0.37080398201942444,-0.3283056318759918
1742766415304422000,5.495421875,9.797526359558105,0.3702280819416046,-0.3279094099998474
1742766415309203000,5.500202880859375,9.797544479370117,0.3707483410835266,-0.32676953077316284
1742766415314011000,5.505010986328125,9.797477722167969,0.3719739317893982,-0.32737115025520325
1742766415318805200,5.50980517578125,9.797430038452148,0.37224751710891724,-0.32848620414733887
1742766415323600000,5.514599853515625,9.797383308410645,0.37267833948135376,-0.32939422130584717
1742766415328394200,5.519394287109375,9.797355651855469,0.3735301196575165,-0.3292606770992279
1742766415333188900,5.52418896484375,9.797364234924316,0.37438297271728516,-0.32800859212875366
1742766415337983200,5.528983154296875,9.797293663024902,0.37524694204330444,-0.3291565179824829
1742766415342777900,5.53377783203125,9.797268867492676,0.3758777976036072,-0.32915472984313965
1742766415347572200,5.538572265625,9.797247886657715,0.37610235810279846,-0.32954636216163635
1742766415352366800,5.543366943359375,9.797276496887207,0.3762037456035614,-0.3285506069660187
1742766415357161200,5.5481611328125,9.797321319580078,0.37521666288375854,-0.32834118604660034
1742766415361955800,5.552955810546875,9.797286987304688,0.37538763880729675,-0.32917529344558716
1742766415366750200,5.557750244140625,9.797266006469727,0.3758142292499542,-0.3293165862560272
1742766415371544800,5.562544921875,9.79727554321289,0.37475287914276123,-0.33025622367858887
1742766415376339200,5.567339111328125,9.797273635864258,0.3741726279258728,-0.3309510052204132
1742766415381120500,5.57212060546875,9.79719066619873,0.3753058910369873,-0.33213961124420166
1742766415385928200,5.57692822265625,9.797157287597656,0.37595242261886597,-0.33236920833587646
1742766415390722800,5.581722900390625,9.797163009643555,0.37588396668434143,-0.33230456709861755
1742766415395517400,5.586517333984375,9.797148704528809,0.3762102425098419,-0.3323516547679901
1742766415400311800,5.591311767578125,9.79712200164795,0.37579238414764404,-0.33360281586647034
1742766415405106200,5.596106201171875,9.797133445739746,0.3756806552410126,-0.33340612053871155
1742766415409887500,5.600887451171875,9.797126770019531,0.3755722939968109,-0.3337050974369049
1742766415414695200,5.605695068359375,9.797171592712402,0.37426257133483887,-0.33387136459350586
1742766415419489800,5.61048974609375,9.797148704528809,0.37472429871559143,-0.3340413272380829
1742766415424270800,5.615270751953125,9.797087669372559,0.3751049339771271,-0.3353942930698395
1742766415429078800,5.620078857421875,9.797035217285156,0.3750196695327759,-0.3369910717010498
1742766415433873400,5.624873291015625,9.796947479248047,0.37605443596839905,-0.3383975923061371
1742766415438654500,5.629654541015625,9.796897888183594,0.37700968980789185,-0.3387599289417267
1742766415443462400,5.63446240234375,9.79686450958252,0.37766900658607483,-0.3390025794506073
1742766415448256800,5.6392568359375,9.796798706054688,0.3785301446914673,-0.33992522954940796
1742766415453051400,5.644051513671875,9.796801567077637,0.3785072863101959,-0.3398834466934204
1742766415457845800,5.648845703125,9.796810150146484,0.3778266906738281,-0.34037911891937256
1742766415462640400,5.653640380859375,9.79675579071045,0.3780176043510437,-0.34174251556396484
1742766415467434800,5.658434814453125,9.796829223632812,0.37662947177886963,-0.34118935465812683
1742766415472229400,5.6632294921875,9.796834945678711,0.3764600455760956,-0.341165691614151
1742766415477023700,5.668023681640625,9.796789169311523,0.3775467276573181,-0.34129175543785095
1742766415481818400,5.672818359375,9.796751022338867,0.3777175843715668,-0.34223219752311707
1742766415486612700,5.67761279296875,9.796732902526855,0.3772118389606476,-0.3432781994342804
1742766415491407400,5.682407470703125,9.796683311462402,0.37829703092575073,-0.34350618720054626
1742766415496201700,5.68720166015625,9.796693801879883,0.3786314129829407,-0.34285491704940796
1742766415500996400,5.691996337890625,9.796653747558594,0.37883251905441284,-0.3437630832195282
1742766415505790700,5.696790771484375,9.796680450439453,0.37880006432533264,-0.34302252531051636
1742766415510585300,5.70158544921875,9.796676635742188,0.3785092234611511,-0.34347444772720337
1742766415515379700,5.706379638671875,9.79671573638916,0.37817004323005676,-0.34271395206451416
1742766415520174300,5.71117431640625,9.79676628112793,0.37740358710289,-0.3421127498149872
1742766415524968700,5.71596875,9.796833992004395,0.37555253505706787,-0.34220635890960693
1742766415529763300,5.720763427734375,9.796834945678711,0.37585723400115967,-0.34186702966690063
1742766415534557700,5.7255576171875,9.79676628112793,0.37650203704833984,-0.3431091010570526
1742766415539352300,5.730352294921875,9.796767234802246,0.3757781982421875,-0.34388259053230286
1742766415544146700,5.735146728515625,9.796730041503906,0.37570011615753174,-0.34502097964286804
1742766415548941300,5.73994140625,9.79671859741211,0.37633559107780457,-0.3446393609046936
1742766415553735700,5.744735595703125,9.796685218811035,0.37657156586647034,-0.3453441262245178
1742766415558530300,5.7495302734375,9.796659469604492,0.3768565058708191,-0.3457474708557129
1742766415563324700,5.75432470703125,9.796697616577148,0.376702219247818,-0.3448444902896881
1742766415568119300,5.759119384765625,9.79662799835205,0.37751898169517517,-0.34591981768608093
1742766415572913700,5.76391357421875,9.796554565429688,0.3792233169078827,-0.3461589515209198
1742766415577708300,5.768708251953125,9.796551704406738,0.3792009651660919,-0.3462589681148529
1742766415582502700,5.773502685546875,9.796537399291992,0.3797188103199005,-0.34609273076057434
1742766415587297300,5.77829736328125,9.79650592803955,0.3803575932979584,-0.3462957441806793
1742766415592092000,5.783091796875,9.796425819396973,0.38083165884017944,-0.3480110466480255
1742766415596873000,5.787873046875,9.796370506286621,0.38128912448883057,-0.3490636348724365
1742766415601681000,5.792680908203125,9.79630184173584,0.38249021768569946,-0.3496806025505066
1742766415606475300,5.797475341796875,9.796260833740234,0.38393086194992065,-0.34925293922424316
1742766415611256300,5.80225634765625,9.796218872070312,0.38487493991851807,-0.3493768572807312
1742766415616064300,5.807064208984375,9.796123504638672,0.3862804174423218,-0.3504990339279175
1742766415620859000,5.81185888671875,9.796167373657227,0.3857150673866272,-0.34990638494491577
1742766415625653200,5.8166533203125,9.796163558959961,0.38572099804878235,-0.350008100271225
1742766415630447900,5.82144775390625,9.796120643615723,0.3864552974700928,-0.3504064083099365
1742766415635242200,5.8262421875,9.796159744262695,0.3859778642654419,-0.3498215973377228
1742766415640036900,5.831036865234375,9.79611873626709,0.387015163898468,-0.34983816742897034
1742766415644831200,5.835831298828125,9.79609203338623,0.38766881823539734,-0.34987393021583557
1742766415649625900,5.8406259765625,9.796089172363281,0.3878336250782013,-0.3497704863548279
1742766415654420200,5.845420166015625,9.796049118041992,0.38857537508010864,-0.3500487804412842
1742766415659214800,5.85021484375,9.796025276184082,0.39014628529548645,-0.34895768761634827
1742766415664009200,5.85500927734375,9.796022415161133,0.3901720643043518,-0.3490118980407715
1742766415668803800,5.859803955078125,9.796016693115234,0.39028942584991455,-0.3490767180919647
1742766415673598200,5.86459814453125,9.79601764678955,0.39080148935317993,-0.34844663739204407
1742766415678392800,5.869392822265625,9.795999526977539,0.3907257616519928,-0.3490559160709381
1742766415683187200,5.874187255859375,9.795947074890137,0.39169248938560486,-0.34943729639053345
1742766415687981800,5.87898193359375,9.796038627624512,0.3907446265220642,-0.34793737530708313
1742766415692776200,5.883776123046875,9.796042442321777,0.3902173638343811,-0.34841984510421753
1742766415697570800,5.88857080078125,9.795957565307617,0.3914493918418884,-0.34942111372947693
1742766415702365200,5.893365234375,9.795919418334961,0.39186033606529236,-0.35003697872161865
1742766415707159800,5.898159912109375,9.795855522155762,0.3924058973789215,-0.3511934280395508
1742766415711954200,5.9029541015625,9.795781135559082,0.3938244581222534,-0.35169658064842224
1742766415716748800,5.907748779296875,9.79571533203125,0.3950340747833252,-0.35216397047042847
1742766415721543200,5.912543212890625,9.795656204223633,0.3961639404296875,-0.35253021121025085
1742766415726337800,5.917337890625,9.795573234558105,0.3976648449897766,-0.3531360924243927
1742766415731132200,5.922132080078125,9.7955904006958,0.3974577486515045,-0.3529016673564911
1742766415735926800,5.9269267578125,9.7955961227417,0.39736437797546387,-0.352875679731369
1742766415740707800,5.931707763671875,9.795548439025879,0.398455411195755,-0.3529479205608368
1742766415745515800,5.936515869140625,9.7955904006958,0.3976605534553528,-0.35267138481140137
1742766415750310400,5.941310302734375,9.795626640319824,0.3969951272010803,-0.3524231016635895
1742766415755104800,5.946104736328125,9.795570373535156,0.39707309007644653,-0.3539031744003296
1742766415759899100,5.950899169921875,9.795516014099121,0.39753061532974243,-0.3548949360847473
1742766415764693800,5.95569384765625,9.795451164245605,0.39841383695602417,-0.3557067811489105
1742766415769488100,5.960488037109375,9.79544734954834,0.39925163984298706,-0.3548458516597748
1742766415774282800,5.96528271484375,9.795454025268555,0.3988848030567169,-0.35508981347084045
1742766415779077400,5.970077392578125,9.795408248901367,0.39931729435920715,-0.3558272123336792
1742766415783871700,5.974871826171875,9.795414924621582,0.3998575806617737,-0.3550618290901184
1742766415788666400,5.979666259765625,9.79541301727295,0.3988102078437805,-0.35629963874816895
1742766415793460700,5.984460693359375,9.795435905456543,0.3978841006755829,-0.3566846251487732
1742766415798255400,5.98925537109375,9.795477867126465,0.39671677350997925,-0.3568403720855713
1742766415803049700,5.9940498046875,9.795464515686035,0.3969764709472656,-0.3569435179233551
1742766415807844400,5.99884423828125,9.795438766479492,0.3965417146682739,-0.35810744762420654
1742766415812638700,6.003638671875,9.795461654663086,0.39502257108688354,-0.35917651653289795
1742766415817433300,6.008433349609375,9.795394897460938,0.39496657252311707,-0.3610514998435974
1742766415822227700,6.013227783203125,9.79527759552002,0.39707615971565247,-0.3619101345539093
1742766415827022300,6.018022216796875,9.795310020446777,0.3965607285499573,-0.36158496141433716
1742766415831816700,6.022816650390625,9.795342445373535,0.3956068158149719,-0.36175262928009033
1742766415836611300,6.027611328125,9.795289039611816,0.3962995111942291,-0.3624439835548401
1742766415841392400,6.032392333984375,9.795259475708008,0.39637476205825806,-0.363178551197052
1742766415846200300,6.037200439453125,9.795251846313477,0.39544567465782166,-0.36437273025512695
1742766415850994700,6.04199462890625,9.795217514038086,0.39519035816192627,-0.36556920409202576
1742766415855776000,6.04677587890625,9.79521656036377,0.39510148763656616,-0.3656839430332184
1742766415860583700,6.051583740234375,9.79516315460205,0.395850270986557,-0.36630624532699585
1742766415865378300,6.05637841796875,9.795063018798828,0.3962297737598419,-0.36858245730400085
1742766415870172700,6.061172607421875,9.795021057128906,0.3958496153354645,-0.3700988292694092
1742766415874967300,6.06596728515625,9.794962882995605,0.3958394527435303,-0.3716576397418976
1742766415879761700,6.07076171875,9.794869422912598,0.3980453908443451,-0.37174633145332336
1742766415884556300,6.075556396484375,9.794867515563965,0.3981528580188751,-0.37168097496032715
1742766415889350700,6.0803505859375,9.79482364654541,0.39796313643455505,-0.3730396330356598
1742766415894145300,6.085145263671875,9.794811248779297,0.3979874551296234,-0.37334638833999634
1742766415898926300,6.08992626953125,9.794787406921387,0.39755868911743164,-0.37442731857299805
1742766415903734300,6.094734375,9.794751167297363,0.39826691150665283,-0.37461429834365845
1742766415908529000,6.09952880859375,9.794815063476562,0.39709076285362244,-0.3742164969444275
1742766415913323300,6.1043232421875,9.794809341430664,0.39730173349380493,-0.3741246461868286
1742766415918117600,6.10911767578125,9.794769287109375,0.39756935834884644,-0.37487852573394775
