time,seconds_elapsed,z,y,x
1742766409856140800,0.047140869140625,-0.0021379655227065086,0.008551862090826035,0.012675080448389053
1742766409870526500,0.0615263671875,-0.004734066314995289,0.0261137206107378,-0.0015271181473508477
1742766409872923600,0.063923583984375,-0.004734066314995289,0.02107422985136509,-0.003970507066696882
1742766409875320800,0.06632080078125,-0.007024743594229221,0.009773556143045425,0.010231691412627697
1742766409877718300,0.06871826171875,-0.005803049076348543,0.007177455350756645,0.023364907130599022
1742766409880115500,0.071115478515625,-0.003359660040587187,0.0012216945178806782,-0.0016798300202935934
1742766409882512600,0.0735126953125,-0.005955760832875967,-0.008551862090826035,-0.0459662564098835
1742766409884910000,0.07591015625,-0.005803049076348543,-0.013591351918876171,-0.04352286830544472
1742766409887307300,0.078307373046875,-0.0032069480512291193,-0.021226942539215088,0.0006108472589403391
1742766409889704400,0.080704345703125,0.0004581354442052543,-0.012675080448389053,0.037567105144262314
1742766409892101600,0.0831015625,-0.0009162708884105086,0.007177455350756645,0.03649812191724777
1742766409894499000,0.0854990234375,-0.0022906772792339325,0.033596597611904144,0.004428642801940441
1742766409896896300,0.087896240234375,-0.0015271181473508477,0.06368082761764526,-0.02641914412379265
1742766409899293400,0.09029345703125,-0.0038177953101694584,0.05741964280605316,-0.034818295389413834
1742766409901690600,0.092690673828125,-0.004734066314995289,0.008857285603880882,-0.026724567636847496
1742766409904088000,0.095088134765625,0.0018325417768210173,-0.042453885078430176,0.0016798300202935934
1742766409906485200,0.0974853515625,0.003359660040587187,-0.0662769302725792,0.02764083817601204
1742766409908882400,0.09988232421875,-0.0006108472589403391,-0.042453885078430176,0.01954711228609085
1742766409911279900,0.10227978515625,-0.0021379655227065086,0.0050394898280501366,-0.00519220158457756
1742766409913677000,0.104677001953125,-0.0036650835536420345,0.033596597611904144,-0.002748812548816204
1742766409916074200,0.10707421875,-0.0035123717971146107,0.03588727489113808,0.017561858519911766
1742766409918471400,0.109471435546875,-0.0021379655227065086,0.01588202826678753,0.029473381116986275
1742766409920868600,0.11186865234375,-0.001985253533348441,-0.010078979656100273,0.01252236869186163
1742766409923266000,0.11426611328125,-0.003359660040587187,-0.011147962883114815,-0.011300674639642239
1742766409925663200,0.116663330078125,-0.003359660040587187,-0.0024433890357613564,-0.02076880633831024
1742766409928060400,0.119060302734375,-0.007024743594229221,-0.013744063675403595,-0.010078979656100273
1742766409930457900,0.121457763671875,-0.005650337319821119,-0.018936265259981155,0.02092151902616024
1742766409932855000,0.12385498046875,-0.0007635590736754239,-0.007788302376866341,0.04840964451432228
1742766409935252200,0.126252197265625,0.00030542362947016954,0.01847812905907631,0.025808297097682953
1742766409937649400,0.1286494140625,-0.0024433890357613564,0.040010496973991394,-0.026571854948997498
1742766409940046800,0.131046875,-0.008551862090826035,0.016340164467692375,-0.04459185153245926
1742766409942444000,0.133444091796875,-0.008093725889921188,-0.023823043331503868,-0.005497625097632408
1742766409944841200,0.13584130859375,-0.005497625097632408,-0.026571854948997498,0.038636088371276855
1742766409947238400,0.13823828125,-0.0007635590736754239,0.007177455350756645,0.041232191026210785
1742766409949635800,0.1406357421875,-0.00259610079228878,0.05604523420333862,0.003359660040587187
1742766409952033000,0.143032958984375,-0.002748812548816204,0.07375980913639069,-0.04184303805232048
1742766409954430200,0.14543017578125,0.0024433890357613564,0.022754060104489326,-0.04932591691613197
1742766409956827600,0.14782763671875,-0.0006108472589403391,-0.05726693198084831,-0.011606098152697086
1742766409959224800,0.150224853515625,-0.00015271181473508477,-0.08002099394798279,0.04199574887752533
1742766409961622000,0.1526220703125,0.0030542362947016954,-0.03023693896830082,0.04825693368911743
1742766409964019200,0.155019287109375,0.0024433890357613564,0.04352286830544472,0.004581354558467865
1742766409966416600,0.157416748046875,-0.002748812548816204,0.06612421572208405,-0.02993151545524597
1742766409968813800,0.159813720703125,-0.0010689827613532543,0.007635590620338917,-0.029167955741286278
1742766409971211000,0.1622109375,0.0006108472589403391,-0.04856235533952713,-0.005650337319821119
1742766409973608200,0.164608154296875,0.0032069480512291193,-0.05497625470161438,0.020616095513105392
1742766409976005600,0.167005615234375,0.004275931045413017,-0.039857782423496246,0.00992626789957285
1742766409978402800,0.16940283203125,0.00030542362947016954,-0.004886778071522713,-0.01847812905907631
1742766409980800000,0.171800048828125,-0.004886778071522713,0.02993151545524597,-0.012216945178806782
1742766409983197200,0.174197265625,-0.006108472589403391,0.05085303261876106,0.015271181240677834
1742766409985594600,0.1765947265625,-0.004886778071522713,0.05207473039627075,0.017714571207761765
1742766409987991800,0.17899169921875,-0.0035123717971146107,0.014965757727622986,-0.003970507066696882
1742766409990389000,0.181388916015625,0.0004581354442052543,-0.04092676565051079,-0.025808297097682953
1742766409992786200,0.1837861328125,-0.004275931045413017,-0.060932014137506485,-0.025961007922887802
1742766409995170300,0.18617041015625,-0.004275931045413017,-0.04871506989002228,-0.001985253533348441
1742766409997580800,0.188580810546875,-0.001985253533348441,-0.017561858519911766,0.021990500390529633
1742766409999978000,0.19097802734375,-0.0035123717971146107,0.029626091942191124,0.029473381116986275
1742766410002361900,0.19336181640625,-0.0036650835536420345,0.0522274412214756,0.012980503961443901
1742766410004772600,0.195772705078125,0.0012216945178806782,0.022601349279284477,-0.024281177669763565
1742766410007169800,0.198169677734375,-0.0021379655227065086,-0.01847812905907631,-0.04718795046210289
1742766410009553700,0.2005537109375,-0.0018325417768210173,-0.05467082932591438,-0.027029991149902344
1742766410011964400,0.20296435546875,0.005497625097632408,-0.04611896723508835,0.013591351918876171
1742766410014361600,0.205361572265625,0.004123218823224306,-0.003970507066696882,0.03649812191724777
1742766410016745500,0.207745361328125,0.003970507066696882,-0.0012216945178806782,0.005497625097632408
1742766410019156000,0.210156005859375,0.003970507066696882,-0.027182703837752342,-0.03405473381280899
1742766410021553400,0.212553466796875,0.0016798300202935934,-0.031000498682260513,-0.03405473381280899
1742766410023937300,0.214937255859375,-0.0021379655227065086,-0.0038177953101694584,0.0006108472589403391
1742766410026347800,0.21734765625,0.00015271181473508477,0.04092676565051079,0.02244863659143448
1742766410028745000,0.219744873046875,0.0012216945178806782,0.05100574716925621,0.004581354558467865
1742766410031142400,0.222142333984375,0.00259610079228878,0.0038177953101694584,-0.023212196305394173
1742766410033539600,0.22453955078125,0.0004581354442052543,-0.036039989441633224,-0.027029991149902344
1742766410035936800,0.226936767578125,-0.0007635590736754239,-0.036039989441633224,-0.009009997360408306
1742766410038334000,0.229333984375,0.0004581354442052543,-0.008857285603880882,0.007788302376866341
1742766410040731400,0.2317314453125,-0.0010689827613532543,0.02351761981844902,0.0068720318377017975
1742766410043128600,0.234128662109375,-0.0024433890357613564,0.03237490355968475,-0.007482878863811493
1742766410045525800,0.23652587890625,0.00015271181473508477,0.018783552572131157,-0.01954711228609085
1742766410047923000,0.2389228515625,-0.007177455350756645,0.008704573847353458,-0.02076880633831024
1742766410050320400,0.2413203125,-0.004581354558467865,-0.001374406274408102,-0.0029015245381742716
1742766410052717600,0.243717529296875,0.00030542362947016954,-0.006261184345930815,0.007788302376866341
1742766410055114800,0.24611474609375,-0.004581354558467865,0.006108472589403391,0.009009997360408306
1742766410057512000,0.248511962890625,-0.0021379655227065086,0.006261184345930815,-0.00519220158457756
1742766410059909400,0.250909423828125,0.0015271181473508477,-0.011147962883114815,-0.01969982497394085
1742766410062306600,0.253306640625,0.00030542362947016954,-0.012369656935334206,-0.023212196305394173
1742766410064703700,0.255703857421875,-0.0021379655227065086,-0.013744063675403595,-0.009009997360408306
1742766410067101200,0.25810107421875,0.0015271181473508477,0.007330167107284069,0.01511846948415041
1742766410069498400,0.260498291015625,0.001374406274408102,0.036039989441633224,0.02351761981844902
1742766410071895600,0.2628955078125,0.003970507066696882,0.013591351918876171,0.01038440316915512
1742766410074292700,0.265292724609375,0.0016798300202935934,-0.02489202655851841,-0.007788302376866341
1742766410076690200,0.267690185546875,-0.0018325417768210173,-0.04489727318286896,-0.011453386396169662
1742766410079087400,0.27008740234375,0.0004581354442052543,-0.033596597611904144,-0.005497625097632408
1742766410081484500,0.272484619140625,0.002748812548816204,0.013591351918876171,0.013896775431931019
1742766410083881700,0.2748818359375,0.0038177953101694584,0.03237490355968475,0.017561858519911766
1742766410086279200,0.277279052734375,0.0015271181473508477,0.0038177953101694584,-0.010078979656100273
1742766410088676400,0.27967626953125,-0.003359660040587187,-0.011147962883114815,-0.023212196305394173
1742766410091073500,0.282073486328125,-0.007177455350756645,0.02489202655851841,-0.0015271181473508477
1742766410093471000,0.284470947265625,-0.004886778071522713,0.05085303261876106,0.015271181240677834
1742766410095854600,0.2868544921875,-0.0010689827613532543,0.0261137206107378,0.001985253533348441
1742766410098265300,0.289265380859375,0.002748812548816204,-0.016187451779842377,-0.009009997360408306
1742766410100662500,0.29166259765625,-0.001985253533348441,-0.039857782423496246,-0.016340164467692375
1742766410103060000,0.29406005859375,-0.004428642801940441,-0.028557108715176582,-0.01969982497394085
1742766410105457200,0.29645703125,-0.004581354558467865,0.0024433890357613564,-0.004123218823224306
1742766410107854300,0.298854248046875,-0.004734066314995289,0.031000498682260513,0.018783552572131157
1742766410110251500,0.30125146484375,-0.0009162708884105086,0.010995250195264816,0.024586603045463562
1742766410112649000,0.30364892578125,0.004275931045413017,-0.037414394319057465,0.007635590620338917
1742766410115046100,0.306046142578125,0.0016798300202935934,-0.04092676565051079,-0.0198525357991457
1742766410117443300,0.308443359375,0.001374406274408102,0.001374406274408102,-0.03268032893538475
1742766410119840500,0.310840576171875,0.00015271181473508477,0.020005248486995697,-0.012369656935334206
1742766410122238000,0.313238037109375,0.00030542362947016954,-0.00259610079228878,0.011453386396169662
1742766410124635100,0.31563525390625,0.004275931045413017,-0.038788799196481705,0.01588202826678753
1742766410127032300,0.3180322265625,0.004275931045413017,-0.037414394319057465,-0.0030542362947016954
1742766410129429500,0.320429443359375,-0.0009162708884105086,-0.004886778071522713,-0.01725643500685692
1742766410131827000,0.322826904296875,-0.004734066314995289,0.016187451779842377,-0.008704573847353458
1742766410134224100,0.32522412109375,-0.0009162708884105086,0.004886778071522713,0.0018325417768210173
1742766410136621300,0.327621337890625,-0.0007635590736754239,-0.01252236869186163,0.0030542362947016954
1742766410139005200,0.330005126953125,0.0016798300202935934,-0.021226942539215088,0.0065666078589856625
1742766410141416000,0.332416015625,-0.001985253533348441,-0.017561858519911766,0.0018325417768210173
1742766410143813000,0.334813232421875,-0.004581354558467865,-0.0012216945178806782,-0.010078979656100273
1742766410146210300,0.337210205078125,-0.0009162708884105086,-0.0036650835536420345,-0.007635590620338917
1742766410148607700,0.339607666015625,-0.0032069480512291193,-0.014965757727622986,0.0018325417768210173
1742766410151005000,0.3420048828125,-0.005650337319821119,-0.011453386396169662,0.011300674639642239
1742766410153388800,0.344388916015625,-0.004581354558467865,-0.008857285603880882,-0.0016798300202935934
1742766410155799300,0.34679931640625,-0.003359660040587187,-0.007330167107284069,-0.026877280324697495
1742766410158196700,0.34919677734375,-0.005803049076348543,-0.011147962883114815,-0.03161134570837021
1742766410160594000,0.351593994140625,-0.004428642801940441,-0.0198525357991457,-0.014965757727622986
1742766410162991000,0.3539912109375,-0.0007635590736754239,-0.010078979656100273,0.011300674639642239
1742766410165388300,0.35638818359375,-0.003359660040587187,0.0010689827613532543,0.017409147694706917
1742766410167772200,0.358772216796875,-0.0009162708884105086,-0.0050394898280501366,-0.004123218823224306
1742766410170183000,0.361182861328125,-0.0010689827613532543,-0.0035123717971146107,-0.030389651656150818
1742766410172580000,0.363580078125,-0.0036650835536420345,0.02626643143594265,-0.026571854948997498
1742766410174977300,0.365977294921875,-0.0035123717971146107,0.02489202655851841,-0.006261184345930815
1742766410177374700,0.368374755859375,0.0015271181473508477,0.0024433890357613564,0.007788302376866341
1742766410179772000,0.37077197265625,0.0016798300202935934,-0.022601349279284477,0.016034740954637527
1742766410182169000,0.373169189453125,-0.0007635590736754239,-0.02870982140302658,0.005344913341104984
1742766410184566300,0.375566162109375,-0.0009162708884105086,-0.012369656935334206,-0.009009997360408306
1742766410186963700,0.377963623046875,-0.0035123717971146107,0.007482878863811493,-0.007635590620338917
1742766410189347600,0.38034765625,-0.004581354558467865,0.013591351918876171,0.00916270911693573
1742766410191758000,0.382758056640625,0.00030542362947016954,-0.00259610079228878,0.0006108472589403391
1742766410194155300,0.3851552734375,0.0004581354442052543,-0.02489202655851841,-0.01252236869186163
1742766410196539400,0.387539306640625,-0.001985253533348441,-0.02367033064365387,-0.010231691412627697
1742766410198950000,0.389949951171875,-0.004581354558467865,-0.008857285603880882,-0.0016798300202935934
1742766410201347000,0.39234716796875,-0.003359660040587187,0.0036650835536420345,0.011453386396169662
1742766410203744500,0.39474462890625,-0.007024743594229221,0.01588202826678753,0.02229592576622963
1742766410206141700,0.3971416015625,-0.005803049076348543,0.01832541823387146,0.030695075169205666
1742766410208539000,0.399538818359375,-0.005803049076348543,0.0010689827613532543,0.0198525357991457
1742766410210936000,0.40193603515625,-0.004581354558467865,-0.016187451779842377,-0.01969982497394085
1742766410213333500,0.40433349609375,-0.007177455350756645,0.001374406274408102,-0.03390202298760414
1742766410215730700,0.406730712890625,-0.004734066314995289,0.02351761981844902,0.0068720318377017975
1742766410218128000,0.4091279296875,-0.0021379655227065086,0.01832541823387146,0.04611896723508835
1742766410220525000,0.411525146484375,-0.0032069480512291193,-0.002748812548816204,0.03176405653357506
1742766410222922500,0.413922607421875,0.00030542362947016954,0,0.0006108472589403391
1742766410225306400,0.416306396484375,-0.0010689827613532543,0.017409147694706917,-0.006413896102458239
1742766410227716900,0.418716796875,-0.0022906772792339325,0.012369656935334206,-0.003970507066696882
1742766410230114300,0.4211142578125,-0.003359660040587187,-0.0050394898280501366,-0.0016798300202935934
1742766410232511500,0.423511474609375,0.002748812548816204,-0.006261184345930815,0.011453386396169662
1742766410234908700,0.42590869140625,0.0004581354442052543,-0.006413896102458239,0.023364907130599022
1742766410237305900,0.428305908203125,0.0004581354442052543,-0.011300674639642239,0.016187451779842377
1742766410239703000,0.430703125,0.00030542362947016954,-0.0024433890357613564,-0.0016798300202935934
1742766410242100500,0.4331005859375,0.0015271181473508477,0.006261184345930815,-0.0029015245381742716
1742766410244497700,0.43549755859375,0.0015271181473508477,-0.007482878863811493,-0.005344913341104984
1742766410246881500,0.437881591796875,0.00030542362947016954,-0.0050394898280501366,0.014965757727622986
1742766410249292000,0.4402919921875,-0.0009162708884105086,0.0035123717971146107,0.029320668429136276
1742766410251689500,0.442689453125,-0.0009162708884105086,0.012216945178806782,0.023364907130599022
1742766410254086700,0.445086669921875,-0.004734066314995289,0.02229592576622963,0.013896775431931019
1742766410256483800,0.44748388671875,-0.005803049076348543,0.007330167107284069,0.005497625097632408
1742766410258881300,0.44988134765625,-0.0007635590736754239,-0.014965757727622986,-0.0006108472589403391
1742766410261278500,0.452278564453125,-0.004428642801940441,-0.020005248486995697,-0.009009997360408306
1742766410263675600,0.454675537109375,-0.003359660040587187,-0.0038177953101694584,-0.0004581354442052543
1742766410266072800,0.45707275390625,-0.0021379655227065086,0.0010689827613532543,0.010231691412627697
1742766410268470300,0.45947021484375,-0.0021379655227065086,-0.00259610079228878,0.011453386396169662
1742766410270867500,0.461867431640625,-0.003359660040587187,-0.00519220158457756,0.010231691412627697
1742766410273264600,0.4642646484375,-0.004581354558467865,0.004734066314995289,0.017409147694706917
1742766410275661800,0.466661865234375,-0.001985253533348441,-0.00519220158457756,0.016187451779842377
1742766410278059300,0.469059326171875,-0.0007635590736754239,-0.014965757727622986,0.0018325417768210173
1742766410280456400,0.47145654296875,-0.003359660040587187,-0.007482878863811493,-0.01969982497394085
1742766410282853600,0.473853515625,-0.003359660040587187,-0.007330167107284069,-0.025655584409832954
1742766410285251000,0.4762509765625,-0.0009162708884105086,-0.008704573847353458,-0.0006108472589403391
1742766410287648300,0.478648193359375,0.0004581354442052543,-0.003970507066696882,0.024586603045463562
1742766410290045400,0.48104541015625,0.0016798300202935934,-0.007635590620338917,0.024433890357613564
1742766410292442600,0.483442626953125,0.0004581354442052543,-0.014965757727622986,-0.0006108472589403391
1742766410294840000,0.485840087890625,-0.0021379655227065086,-0.012369656935334206,-0.03161134570837021
1742766410297224000,0.488223876953125,-0.004734066314995289,0.00259610079228878,-0.03390202298760414
1742766410299634400,0.490634521484375,-0.0009162708884105086,0.0050394898280501366,-0.00519220158457756
1742766410302031600,0.493031494140625,0.004123218823224306,-0.013896775431931019,0.025655584409832954
1742766410304429000,0.495428955078125,0.0004581354442052543,-0.020157959312200546,0.025655584409832954
1742766410306826200,0.497826171875,-0.0021379655227065086,-0.006261184345930815,-0.007635590620338917
1742766410309223400,0.500223388671875,-0.004734066314995289,0.014965757727622986,-0.014660334214568138
1742766410311620600,0.50262060546875,-0.005803049076348543,0.013591351918876171,0.005497625097632408
1742766410314018000,0.50501806640625,-0.003359660040587187,0.007330167107284069,0.013896775431931019
1742766410316415200,0.507415283203125,-0.004581354558467865,0.006261184345930815,-0.008857285603880882
1742766410318812400,0.5098125,-0.005955760832875967,0.010078979656100273,-0.03268032893538475
1742766410321209600,0.512209716796875,-0.0022906772792339325,0.007635590620338917,-0.021990500390529633
1742766410323607000,0.51460693359375,-0.0021379655227065086,0.0012216945178806782,0.0018325417768210173
1742766410326004200,0.517004150390625,-0.004581354558467865,0.0010689827613532543,0.017409147694706917
1742766410328401400,0.5194013671875,-0.005803049076348543,0.009620844386518002,0.030542362481355667
1742766410330798600,0.521798583984375,-0.008246437646448612,0.01588202826678753,0.025808297097682953
1742766410333182700,0.5241826171875,-0.0021379655227065086,0.006261184345930815,-0.0029015245381742716
1742766410335593200,0.52659326171875,-0.0035123717971146107,-0.0035123717971146107,-0.037567105144262314
1742766410337990400,0.528990478515625,-0.0035123717971146107,-0.007330167107284069,-0.04230117425322533
1742766410340374300,0.531374267578125,-0.0009162708884105086,-0.011147962883114815,-0.008857285603880882
1742766410342785000,0.533784912109375,0.0004581354442052543,-0.003970507066696882,0.024586603045463562
1742766410345182200,0.53618212890625,0.0004581354442052543,0.0035123717971146107,0.040010496973991394
1742766410347566000,0.538566162109375,-0.0009162708884105086,0.004734066314995289,0.024586603045463562
1742766410349976800,0.540976806640625,-0.0021379655227065086,0.0050394898280501366,-0.00519220158457756
1742766410352374000,0.5433740234375,-0.0035123717971146107,-0.0010689827613532543,-0.03390202298760414
1742766410354758000,0.5457578125,-0.0035123717971146107,0.010078979656100273,-0.024281177669763565
1742766410357168400,0.54816845703125,-0.003359660040587187,0.009773556143045425,0.01511846948415041
1742766410359565800,0.55056591796875,-0.004428642801940441,-0.010231691412627697,0.029320668429136276
1742766410361949700,0.55294970703125,-0.0007635590736754239,-0.010078979656100273,0.013744063675403595
1742766410364360200,0.555360107421875,-0.004581354558467865,0.008551862090826035,0.007941014133393764
1742766410366757600,0.557757568359375,-0.005803049076348543,0.011147962883114815,0.001985253533348441
1742766410369141200,0.560141357421875,-0.003359660040587187,0.0050394898280501366,-0.007635590620338917
1742766410371552000,0.562552001953125,-0.007177455350756645,0.0012216945178806782,-0.023212196305394173
1742766410373949200,0.56494921875,-0.005955760832875967,0.0038177953101694584,-0.024281177669763565
1742766410376333000,0.5673330078125,-0.004734066314995289,0.008704573847353458,-0.00519220158457756
1742766410378743800,0.569743896484375,-0.003359660040587187,-0.001374406274408102,0.017409147694706917
1742766410381141000,0.57214111328125,-0.0021379655227065086,-0.00015271181473508477,0.02092151902616024
1742766410383538200,0.5745380859375,-0.004734066314995289,0.02473931387066841,0.012827792204916477
1742766410385935600,0.576935546875,-0.003359660040587187,0.011147962883114815,0.001985253533348441
1742766410388332800,0.579332763671875,-0.001985253533348441,-0.0261137206107378,-0.018630841746926308
1742766410390730000,0.58172998046875,-0.003359660040587187,-0.014813045971095562,-0.037567105144262314
1742766410393127200,0.584127197265625,-0.0035123717971146107,0.020005248486995697,-0.020616095513105392
1742766410395524600,0.586524658203125,-0.0021379655227065086,0.009773556143045425,0.0198525357991457
1742766410397908500,0.588908447265625,-0.0032069480512291193,-0.007788302376866341,0.03649812191724777
1742766410400319000,0.591319091796875,-0.003359660040587187,-0.00259610079228878,0.012675080448389053
1742766410402716200,0.593716064453125,0.001374406274408102,0.001374406274408102,-0.027946261689066887
1742766410405100300,0.596100341796875,-0.0022906772792339325,0.003970507066696882,-0.03634541109204292
1742766410407510800,0.5985107421875,-0.0021379655227065086,0.00259610079228878,-0.012369656935334206
1742766410409908000,0.600907958984375,-0.0009162708884105086,0.007330167107284069,0.005497625097632408
1742766410412305400,0.603305419921875,-0.003359660040587187,-0.001374406274408102,0.007788302376866341
1742766410414702600,0.60570263671875,-0.003359660040587187,-0.006261184345930815,-0.004123218823224306
1742766410417099800,0.608099853515625,-0.004581354558467865,-0.0050394898280501366,-0.005344913341104984
1742766410419497000,0.6104970703125,-0.007024743594229221,0,-0.013591351918876171
1742766410421894400,0.612894287109375,-0.008399149402976036,0.014965757727622986,-0.014660334214568138
1742766410424291600,0.61529150390625,-0.007177455350756645,0.008704573847353458,-0.007635590620338917
1742766410426688800,0.617688720703125,-0.005803049076348543,-0.011300674639642239,-0.01252236869186163
1742766410429086000,0.6200859375,-0.0021379655227065086,-0.007330167107284069,-0.02076880633831024
1742766410431483400,0.6224833984375,-0.0022906772792339325,-0.0010689827613532543,-0.030389651656150818
1742766410433867300,0.6248671875,-0.0021379655227065086,-0.0036650835536420345,-0.016034740954637527
1742766410436277800,0.62727783203125,-0.004581354558467865,-0.0038177953101694584,0.0018325417768210173
1742766410438675000,0.629675048828125,-0.004581354558467865,0.0036650835536420345,0.005497625097632408
1742766410441058800,0.632058837890625,-0.003359660040587187,-0.007482878863811493,-0.004123218823224306
1742766410443469600,0.634469482421875,-0.0021379655227065086,-0.013591351918876171,-0.016034740954637527
1742766410445866800,0.63686669921875,-0.005955760832875967,-0.004886778071522713,-0.039857782423496246
1742766410448264000,0.639263916015625,-0.005955760832875967,0.00015271181473508477,-0.037414394319057465
1742766410450661400,0.641661376953125,-0.004581354558467865,-0.012369656935334206,-0.01847812905907631
1742766410453058600,0.64405859375,0.00030542362947016954,-0.0050394898280501366,-0.004123218823224306
1742766410455455700,0.646455810546875,-0.0009162708884105086,-0.0012216945178806782,-0.0016798300202935934
1742766410457853000,0.64885302734375,0.0015271181473508477,-0.0024433890357613564,-0.007635590620338917
1742766410460250400,0.65125048828125,0.00015271181473508477,0.010078979656100273,-0.01832541823387146
1742766410462647600,0.6536474609375,0.00015271181473508477,0.008857285603880882,-0.01832541823387146
1742766410465044700,0.656044677734375,0.002748812548816204,-0.006108472589403391,-0.01725643500685692
1742766410467442200,0.658442138671875,-0.0009162708884105086,-0.0024433890357613564,-0.008857285603880882
1742766410469826000,0.660825927734375,-0.0010689827613532543,0.014965757727622986,-0.006413896102458239
1742766410472236500,0.663236572265625,-0.0010689827613532543,0.014965757727622986,-0.006413896102458239
1742766410474633700,0.6656337890625,-0.0021379655227065086,0.0012216945178806782,-0.010078979656100273
1742766410477031200,0.66803125,-0.0035123717971146107,0.016340164467692375,-0.025502873584628105
1742766410479428400,0.670428466796875,-0.0036650835536420345,0.03374931216239929,-0.022906772792339325
1742766410481825500,0.672825439453125,-0.0022906772792339325,0.012369656935334206,0.0032069480512291193
1742766410484222700,0.67522265625,-0.001985253533348441,-0.002748812548816204,0.026877280324697495
1742766410486620200,0.6776201171875,-0.003359660040587187,0.012216945178806782,0.016340164467692375
1742766410489017300,0.680017333984375,-0.006108472589403391,0.033596597611904144,-0.00030542362947016954
1742766410491414500,0.68241455078125,-0.005955760832875967,0.018630841746926308,-0.0015271181473508477
1742766410493811700,0.684811767578125,-0.003359660040587187,0.0036650835536420345,-0.004123218823224306
1742766410496209200,0.687209228515625,-0.0035123717971146107,0.011147962883114815,-0.011147962883114815
1742766410498606300,0.6896064453125,-0.0022906772792339325,0.01252236869186163,-0.00992626789957285
1742766410501003500,0.69200341796875,-0.003359660040587187,0.0036650835536420345,0.006719320081174374
1742766410503400700,0.694400634765625,0.0004581354442052543,-0.012675080448389053,0.030389651656150818
1742766410505784800,0.696784912109375,0.004123218823224306,-0.0015271181473508477,0.03527642786502838
1742766410508195300,0.6991953125,-0.0009162708884105086,0.014813045971095562,0.018630841746926308
1742766410510592500,0.701592529296875,-0.0007635590736754239,-0.011300674639642239,0.004123218823224306
1742766410512976400,0.703976318359375,0.0004581354442052543,-0.03237490355968475,-0.014965757727622986
1742766410515387100,0.70638720703125,-0.0035123717971146107,0.008857285603880882,-0.025502873584628105
1742766410517784300,0.708784423828125,-0.0024433890357613564,0.03237490355968475,0.0009162708884105086
1742766410520181500,0.711181396484375,-0.0007635590736754239,0.0022906772792339325,0.03298575058579445
1742766410522579000,0.713578857421875,-0.0032069480512291193,-0.016492875292897224,0.03405473381280899
1742766410524976000,0.71597607421875,-0.0035123717971146107,0.012369656935334206,0.0032069480512291193
1742766410527373300,0.718373291015625,-0.0035123717971146107,0.0261137206107378,-0.00519220158457756
1742766410529770500,0.7207705078125,-0.004581354558467865,-0.00259610079228878,0.0065666078589856625
1742766410532168000,0.72316796875,-0.003359660040587187,-0.008857285603880882,0.0018325417768210173
1742766410534565000,0.725565185546875,-0.0035123717971146107,0.011147962883114815,-0.011147962883114815
1742766410536962300,0.72796240234375,-0.0021379655227065086,0.0010689827613532543,0.006719320081174374
1742766410539359500,0.730359375,-0.0032069480512291193,-0.007788302376866341,0.03527642786502838
1742766410541743400,0.732743408203125,-0.003359660040587187,0.0035123717971146107,0.03176405653357506
1742766410544154000,0.735154052734375,-0.0021379655227065086,0.007330167107284069,0.004275931045413017
1742766410546551300,0.73755126953125,-0.003359660040587187,-0.008704573847353458,-0.0029015245381742716
1742766410548948700,0.73994873046875,-0.0021379655227065086,-0.00259610079228878,-0.0029015245381742716
1742766410551346000,0.742345947265625,-0.0021379655227065086,-0.00259610079228878,0.0006108472589403391
1742766410553743000,0.7447431640625,-0.0009162708884105086,-0.011300674639642239,-0.0006108472589403391
1742766410556140300,0.747140380859375,0.00030542362947016954,-0.007482878863811493,-0.0006108472589403391
1742766410558537500,0.749537353515625,0.0016798300202935934,-0.013744063675403595,0.014965757727622986
1742766410560935000,0.751934814453125,0.0004581354442052543,-0.00519220158457756,0.02092151902616024
1742766410563332000,0.75433203125,-0.003359660040587187,0.008551862090826035,0.027029991149902344
1742766410565729300,0.756729248046875,-0.003359660040587187,0.007177455350756645,0.025808297097682953
1742766410568126500,0.75912646484375,-0.005803049076348543,0.004886778071522713,0.007941014133393764
1742766410570524000,0.76152392578125,-0.010689826682209969,-0.007482878863811493,-0.024433890357613564
1742766410572921000,0.763921142578125,-0.005955760832875967,0.0038177953101694584,-0.03268032893538475
1742766410575318300,0.766318359375,0.00015271181473508477,0.013744063675403595,-0.007635590620338917
1742766410577702100,0.7687021484375,-0.0007635590736754239,0.0009162708884105086,0.03405473381280899
1742766410580113000,0.77111279296875,-0.001985253533348441,-0.007788302376866341,0.0328330397605896
1742766410582510000,0.773510009765625,-0.004581354558467865,-0.001374406274408102,0.011453386396169662
1742766410584894000,0.77589404296875,-0.005803049076348543,-0.0024433890357613564,-0.01252236869186163
1742766410587304700,0.7783046875,-0.005803049076348543,-0.014813045971095562,-0.026877280324697495
1742766410589702000,0.780701904296875,-0.003359660040587187,-0.0036650835536420345,-0.02076880633831024
1742766410592099000,0.78309912109375,-0.004581354558467865,0.0012216945178806782,-0.004123218823224306
1742766410594496300,0.785496337890625,0.0004581354442052543,-0.01252236869186163,0.0065666078589856625
1742766410596893700,0.787893798828125,0.0004581354442052543,-0.020005248486995697,-0.004275931045413017
1742766410599291000,0.790290771484375,-0.0021379655227065086,0.0024433890357613564,-0.010078979656100273
1742766410601688000,0.79268798828125,-0.004734066314995289,0.02733541466295719,-0.0015271181473508477
1742766410604085500,0.79508544921875,-0.007177455350756645,0.027182703837752342,0.018783552572131157
1742766410606469000,0.79746923828125,-0.005650337319821119,-0.007635590620338917,0.013744063675403595
1742766410608879900,0.7998798828125,-0.0021379655227065086,-0.006108472589403391,-0.027946261689066887
1742766410611277000,0.802277099609375,-0.0024433890357613564,0.020157959312200546,-0.04337015375494957
1742766410613661000,0.804660888671875,0.0015271181473508477,0.0036650835536420345,-0.0029015245381742716
1742766410616071700,0.80707177734375,0.0016798300202935934,-0.010231691412627697,0.026877280324697495
1742766410618468900,0.80946875,-0.0009162708884105086,-0.00015271181473508477,0.025808297097682953
1742766410620866000,0.811865966796875,-0.0009162708884105086,0.0036650835536420345,0.006719320081174374
1742766410623263200,0.81426318359375,-0.0035123717971146107,0.012369656935334206,-0.0004581354442052543
1742766410625660700,0.81666064453125,-0.0022906772792339325,0.00992626789957285,-0.0029015245381742716
1742766410628057900,0.819057861328125,-0.0022906772792339325,0.008704573847353458,-0.012369656935334206
1742766410630455000,0.821455078125,-0.004734066314995289,0.021226942539215088,-0.013438640162348747
1742766410632852500,0.8238525390625,-0.004734066314995289,0.012369656935334206,0.0007635590736754239
1742766410635249700,0.826249755859375,-0.003359660040587187,0.0022906772792339325,0.013896775431931019
1742766410637646800,0.828646728515625,-0.003359660040587187,0.008551862090826035,0.018630841746926308
1742766410640044000,0.8310439453125,-0.003359660040587187,0.004886778071522713,0.012675080448389053
1742766410642428200,0.83342822265625,-0.003359660040587187,-0.0050394898280501366,0.004275931045413017
1742766410644838700,0.835838623046875,-0.003359660040587187,-0.006261184345930815,-0.013744063675403595
1742766410647235800,0.83823583984375,-0.0035123717971146107,0.006261184345930815,-0.01832541823387146
1742766410649619700,0.84061962890625,-0.0035123717971146107,0.014965757727622986,-0.00519220158457756
1742766410652030500,0.843030517578125,-0.004734066314995289,0.013591351918876171,0.0007635590736754239
1742766410654427600,0.845427734375,-0.005955760832875967,0.008704573847353458,-0.0016798300202935934
1742766410656824800,0.847824951171875,-0.004734066314995289,0.02367033064365387,-0.00992626789957285
1742766410659222300,0.85022216796875,-0.0036650835536420345,0.039857782423496246,-0.006261184345930815
1742766410661619500,0.852619384765625,-0.0035123717971146107,0.014813045971095562,0.001985253533348441
1742766410664016600,0.8550166015625,-0.003359660040587187,-0.004886778071522713,-0.014813045971095562
1742766410666413800,0.857413818359375,-0.0022906772792339325,0.001374406274408102,-0.029167955741286278
1742766410668811300,0.859811279296875,0.00030542362947016954,-0.0012216945178806782,-0.0029015245381742716
1742766410671208400,0.86220849609375,-0.001985253533348441,-0.012675080448389053,0.01969982497394085
1742766410673605600,0.864605712890625,0.0004581354442052543,-0.017561858519911766,0.021990500390529633
1742766410676002800,0.8670029296875,0.002748812548816204,-0.0050394898280501366,0.017409147694706917
1742766410678386700,0.86938671875,-0.0022906772792339325,0.011147962883114815,-0.0004581354442052543
1742766410680797400,0.87179736328125,-0.0009162708884105086,-0.007330167107284069,-0.023212196305394173
1742766410683194600,0.874194580078125,0.00030542362947016954,-0.025961007922887802,-0.03771981969475746
1742766410685578500,0.87657861328125,-0.0022906772792339325,0.00519220158457756,-0.04107947647571564
1742766410687989200,0.8789892578125,-0.004734066314995289,0.02733541466295719,-0.003970507066696882
1742766410690386400,0.881386474609375,-0.0032069480512291193,-0.006413896102458239,0.029320668429136276
1742766410692770300,0.883770263671875,-0.001985253533348441,-0.02504473738372326,0.01725643500685692
1742766410695180800,0.886180908203125,-0.004734066314995289,0.00992626789957285,-0.011147962883114815
1742766410697578200,0.888578125,-0.0035123717971146107,0.016187451779842377,-0.00519220158457756
1742766410699975400,0.890975341796875,-0.001985253533348441,-0.016340164467692375,0.007788302376866341
1742766410702372600,0.89337255859375,-0.0032069480512291193,-0.02504473738372326,0.005344913341104984
1742766410704769800,0.895769775390625,-0.005803049076348543,-0.0024433890357613564,-0.01725643500685692
1742766410707167200,0.898167236328125,-0.004734066314995289,0.011300674639642239,-0.01588202826678753
1742766410709564400,0.900564453125,-0.0032069480512291193,-0.014965757727622986,-0.0006108472589403391
1742766410711961600,0.902961669921875,-0.004581354558467865,-0.011300674639642239,-0.008857285603880882
1742766410714359000,0.905359130859375,-0.004734066314995289,0.011300674639642239,-0.01832541823387146
1742766410716756200,0.907756103515625,0.0016798300202935934,-0.02244863659143448,-0.010231691412627697
1742766410719153400,0.9101533203125,0.0030542362947016954,-0.04230117425322533,-0.001985253533348441
1742766410721537300,0.912537353515625,-0.0009162708884105086,-0.018630841746926308,-0.01252236869186163
1742766410723948000,0.914947998046875,-0.0021379655227065086,-0.011147962883114815,-0.01252236869186163
1742766410726345200,0.91734521484375,-0.005650337319821119,-0.012675080448389053,0.009009997360408306
1742766410728729000,0.91972900390625,-0.01175880990922451,-0.015271181240677834,0.013744063675403595
1742766410731139600,0.9221396484375,-0.01435491070151329,-0.00519220158457756,-0.007635590620338917
1742766410733537000,0.924537109375,-0.008246437646448612,-0.008704573847353458,-0.021990500390529633
1742766410735934200,0.926934326171875,-0.001985253533348441,-0.029778804630041122,-0.024586603045463562
1742766410738331400,0.929331298828125,-0.001985253533348441,-0.02367033064365387,-0.0065666078589856625
1742766410740728600,0.931728515625,-0.0009162708884105086,0.0024433890357613564,0.0007635590736754239
1742766410743112400,0.934112548828125,-0.0021379655227065086,-0.001374406274408102,0.009009997360408306
1742766410745523200,0.936523193359375,-0.0007635590736754239,-0.02626643143594265,0.013591351918876171
1742766410747920400,0.93892041015625,-0.001985253533348441,-0.02748812735080719,-0.006719320081174374
1742766410750317600,0.941317626953125,-0.003359660040587187,-0.004886778071522713,-0.025655584409832954
1742766410752715000,0.943715087890625,-0.004734066314995289,0.0050394898280501366,-0.01954711228609085
1742766410755112200,0.9461123046875,-0.003359660040587187,0.0010689827613532543,0.011453386396169662
1742766410757509400,0.94850927734375,-0.0032069480512291193,-0.010231691412627697,0.03405473381280899
1742766410759906600,0.950906494140625,-0.001985253533348441,-0.003970507066696882,0.018630841746926308
1742766410762304000,0.953303955078125,-0.004734066314995289,0.013744063675403595,-0.007635590620338917
1742766410764701200,0.955701171875,-0.007177455350756645,0.013744063675403595,-0.013591351918876171
1742766410767098400,0.958098388671875,-0.004734066314995289,0.014965757727622986,-0.007635590620338917
1742766410769495800,0.960495849609375,-0.0035123717971146107,0.012369656935334206,-0.0016798300202935934
1742766410771893000,0.96289306640625,-0.0021379655227065086,-0.001374406274408102,0.010231691412627697
1742766410774290200,0.965290283203125,-0.0007635590736754239,-0.007635590620338917,0.025655584409832954
1742766410776687400,0.967687255859375,0.0004581354442052543,-0.007635590620338917,0.026877280324697495
1742766410779084800,0.970084716796875,0.0015271181473508477,0.0035123717971146107,0.02214321307837963
1742766410781482000,0.97248193359375,0.00030542362947016954,0.007330167107284069,0.02107422985136509
1742766410783879200,0.974879150390625,0.0004581354442052543,-0.011300674639642239,0.005344913341104984
1742766410786276400,0.9772763671875,0.0015271181473508477,-0.011147962883114815,-0.01847812905907631
1742766410788673800,0.979673828125,0.00015271181473508477,0.00259610079228878,-0.01725643500685692
1742766410791071000,0.982071044921875,0.00015271181473508477,0.014813045971095562,0.005497625097632408
1742766410793454800,0.984454833984375,-0.0021379655227065086,0.014813045971095562,0.017409147694706917
1742766410795865600,0.986865478515625,-0.0010689827613532543,0.02229592576622963,0.017561858519911766
1742766410798262800,0.9892626953125,-0.0022906772792339325,0.02107422985136509,0.018783552572131157
1742766410800660000,0.991659912109375,-0.0010689827613532543,0.012369656935334206,0.006719320081174374
1742766410803057200,0.99405712890625,-0.0035123717971146107,0.008704573847353458,-0.008857285603880882
1742766410805454600,0.99645458984375,-0.004581354558467865,-0.0024433890357613564,-0.01954711228609085
1742766410807838500,0.99883837890625,-0.003359660040587187,-0.016187451779842377,-0.016187451779842377
1742766410810249000,1.0012490234375,-0.005803049076348543,-0.0038177953101694584,0.0065666078589856625
1742766410812646100,1.003646240234375,-0.007024743594229221,0.01588202826678753,0.03894151374697685
1742766410815043600,1.006043701171875,-0.0007635590736754239,0.005955760832875967,0.04489727318286896
1742766410817440800,1.008440673828125,-0.0032069480512291193,-0.006413896102458239,0.017409147694706917
1742766410819838000,1.010837890625,-0.003359660040587187,-0.014965757727622986,-0.01847812905907631
1742766410822235100,1.013235107421875,-0.004581354558467865,-0.008551862090826035,-0.030389651656150818
1742766410824632600,1.015632568359375,-0.0009162708884105086,-0.007482878863811493,-0.01252236869186163
1742766410827029800,1.01802978515625,-0.0021379655227065086,-0.01252236869186163,-0.0006108472589403391
1742766410829427000,1.020427001953125,-0.0009162708884105086,-0.00259610079228878,0.010231691412627697
1742766410831824100,1.02282421875,0.0016798300202935934,-0.016340164467692375,0.016034740954637527
1742766410834221600,1.0252216796875,-0.001985253533348441,-0.022601349279284477,0.014813045971095562
1742766410836618800,1.02761865234375,-0.003359660040587187,0.0010689827613532543,0.012675080448389053
1742766410839016000,1.030015869140625,-0.0021379655227065086,0.012369656935334206,0.016340164467692375
1742766410841413400,1.032413330078125,-0.0007635590736754239,-0.01511846948415041,0.014965757727622986
1742766410843810600,1.034810546875,0.0004581354442052543,-0.02733541466295719,-0.011453386396169662
1742766410846207700,1.037207763671875,-0.0009162708884105086,-0.009773556143045425,-0.03512371703982353
1742766410848605000,1.03960498046875,0.00015271181473508477,0.001374406274408102,-0.021990500390529633
1742766410850988800,1.04198876953125,-0.0007635590736754239,-0.007635590620338917,0.016187451779842377
1742766410853399600,1.044399658203125,-0.0007635590736754239,-0.007788302376866341,0.03405473381280899
1742766410855796700,1.046796630859375,-0.0032069480512291193,-0.007635590620338917,0.02214321307837963
1742766410858180600,1.0491806640625,-0.001985253533348441,-0.017409147694706917,-0.0030542362947016954
1742766410860591400,1.05159130859375,-0.0021379655227065086,-0.016034740954637527,-0.03161134570837021
1742766410862988500,1.053988525390625,-0.0035123717971146107,0.012675080448389053,-0.037414394319057465
1742766410865385700,1.0563857421875,-0.004734066314995289,0.02244863659143448,-0.012369656935334206
1742766410867783000,1.058782958984375,-0.001985253533348441,-0.012675080448389053,0.014965757727622986
1742766410870180400,1.061180419921875,-0.0007635590736754239,-0.023823043331503868,0.010078979656100273
1742766410872564200,1.063564208984375,-0.0035123717971146107,0.014965757727622986,-0.012369656935334206
1742766410874974700,1.065974609375,-0.0012216945178806782,0.02993151545524597,-0.00992626789957285
1742766410877372000,1.068371826171875,0.00015271181473508477,0.018630841746926308,0.01511846948415041
1742766410879756000,1.070756103515625,-0.001985253533348441,-0.00519220158457756,0.014965757727622986
1742766410882166500,1.07316650390625,-0.0022906772792339325,-0.0010689827613532543,-0.024433890357613564
1742766410884563700,1.075563720703125,-0.0024433890357613564,0.02626643143594265,-0.03497100621461868
1742766410886947600,1.077947509765625,0.001374406274408102,0.01252236869186163,-0.014813045971095562
1742766410889358300,1.0803583984375,0.00519220158457756,-0.011147962883114815,0.0006108472589403391
1742766410891755500,1.082755615234375,0.003970507066696882,-0.0036650835536420345,-0.0029015245381742716
1742766410894139400,1.085139404296875,-0.0009162708884105086,0.0036650835536420345,-0.004123218823224306
1742766410896550100,1.087550048828125,-0.0009162708884105086,0.009773556143045425,0.02107422985136509
1742766410898947300,1.089947265625,0.00030542362947016954,0.01725643500685692,0.027029991149902344
1742766410901331200,1.092331298828125,-0.0022906772792339325,0.012369656935334206,-0.00519220158457756
1742766410903741700,1.09474169921875,-0.004734066314995289,0.0038177953101694584,-0.03512371703982353
1742766410906139100,1.09713916015625,-0.0035123717971146107,0.0038177953101694584,-0.025502873584628105
1742766410908523000,1.09952294921875,-0.0021379655227065086,0.014813045971095562,0.016340164467692375
1742766410910933500,1.10193359375,-0.0022906772792339325,0.02351761981844902,0.025961007922887802
1742766410913330700,1.10433056640625,-0.003359660040587187,0.012369656935334206,0.005497625097632408
1742766410915728100,1.10672802734375,-0.003359660040587187,0,-0.01725643500685692
1742766410918125300,1.109125244140625,-0.0022906772792339325,0.013744063675403595,-0.011147962883114815
1742766410920522500,1.1115224609375,-0.0035123717971146107,0.02351761981844902,0.004428642801940441
1742766410922906400,1.11390625,-0.0022906772792339325,0.01725643500685692,0.011606098152697086
1742766410925317000,1.116317138671875,-0.0022906772792339325,0.016034740954637527,0.00916270911693573
1742766410927714300,1.11871435546875,-0.0035123717971146107,0.014965757727622986,-0.013591351918876171
1742766410930111500,1.121111572265625,-0.0022906772792339325,0.00259610079228878,-0.024281177669763565
1742766410932508700,1.1235087890625,-0.0035123717971146107,0.01252236869186163,-0.008857285603880882
1742766410934906000,1.125906005859375,-0.0022906772792339325,0.0261137206107378,0.001985253533348441
1742766410937303300,1.12830322265625,0.00015271181473508477,0.011147962883114815,-0.003970507066696882
1742766410939700500,1.130700439453125,0.003970507066696882,-0.0198525357991457,-0.017409147694706917
1742766410942097700,1.13309765625,0.0004581354442052543,-0.02351761981844902,-0.017409147694706917
1742766410944481800,1.135481689453125,-0.0009162708884105086,-0.00015271181473508477,0.007788302376866341
1742766410946892300,1.137892333984375,0.002748812548816204,0.011147962883114815,0.02229592576622963
1742766410949289500,1.14028955078125,0.00030542362947016954,0.012216945178806782,0.02229592576622963
1742766410951673300,1.14267333984375,0.00030542362947016954,-0.0012216945178806782,-0.0004581354442052543
1742766410954084000,1.145083984375,0.0015271181473508477,-0.02473931387066841,-0.03771981969475746
1742766410956481300,1.147481201171875,0.00030542362947016954,-0.014660334214568138,-0.0459662564098835
1742766410958865200,1.149865234375,-0.0022906772792339325,0.006413896102458239,-0.026724567636847496
1742766410961276000,1.15227587890625,-0.004734066314995289,0.0198525357991457,0.007941014133393764
1742766410963673000,1.154673095703125,-0.0007635590736754239,-0.0065666078589856625,0.03649812191724777
1742766410966057000,1.157056884765625,0.0004581354442052543,-0.02504473738372326,0.014813045971095562
1742766410968467500,1.159467529296875,-0.0010689827613532543,0.0038177953101694584,-0.023212196305394173
1742766410970865000,1.161864990234375,-0.0035123717971146107,0.008857285603880882,-0.04214845970273018
1742766410973248800,1.164248779296875,-0.0009162708884105086,-0.00992626789957285,-0.01847812905907631
1742766410975659300,1.1666591796875,0.0004581354442052543,-0.02367033064365387,0.0029015245381742716
1742766410978056400,1.169056396484375,-0.0007635590736754239,-0.016187451779842377,0.0018325417768210173
1742766410980454000,1.171453857421875,-0.003359660040587187,0.004886778071522713,0.0030542362947016954
1742766410982851000,1.17385107421875,-0.003359660040587187,0.0024433890357613564,-0.007635590620338917
1742766410985248300,1.176248291015625,-0.0035123717971146107,-0.0036650835536420345,-0.029167955741286278
1742766410987645400,1.1786455078125,-0.0035123717971146107,0.008857285603880882,-0.037414394319057465
1742766410990043000,1.18104296875,-0.0035123717971146107,-0.0035123717971146107,-0.03634541109204292
1742766410992440000,1.183440185546875,-0.0009162708884105086,-0.014813045971095562,-0.02092151902616024
1742766410994837200,1.185837158203125,0.0015271181473508477,-0.011147962883114815,-0.004123218823224306
1742766410997234400,1.188234375,-0.0009162708884105086,-0.006261184345930815,-0.011300674639642239
1742766410999632000,1.1906318359375,-0.0021379655227065086,-0.006261184345930815,-0.005344913341104984
1742766411002029000,1.193029052734375,-0.0032069480512291193,-0.014965757727622986,-0.004123218823224306
1742766411004426200,1.19542626953125,-0.01435491070151329,-0.00015271181473508477,-0.014813045971095562
1742766411006823700,1.19782373046875,-0.05467082932591438,-0.006719320081174374,-0.021990500390529633
1742766411009207600,1.20020751953125,-0.10811996459960938,-0.02351761981844902,-0.016034740954637527
1742766411011618000,1.2026181640625,-0.1582094430923462,-0.012827792204916477,-0.024281177669763565
1742766411014015200,1.20501513671875,-0.17561858892440796,0.01817270554602146,-0.03130592033267021
1742766411016399000,1.207399169921875,-0.16217994689941406,0.031916771084070206,-0.014507622458040714
1742766411018809900,1.209809814453125,-0.12904147803783417,0.014660334214568138,0.012827792204916477
1742766411021207000,1.21220703125,-0.10460758954286575,-0.006108472589403391,-0.00519220158457756
1742766411023591000,1.2145908203125,-0.08887827396392822,0.0029015245381742716,-0.04337015375494957
1742766411026001700,1.217001708984375,-0.058335911482572556,0.001985253533348441,-0.038636088371276855
1742766411028398800,1.21939892578125,-0.016798298805952072,0.0010689827613532543,-0.008857285603880882
1742766411030782700,1.22178271484375,0.002748812548816204,0.0010689827613532543,0.017409147694706917
1742766411033193500,1.224193359375,-0.001985253533348441,0.0022906772792339325,0.03298575058579445
1742766411035590700,1.226590576171875,-0.0009162708884105086,-0.00015271181473508477,0.009009997360408306
1742766411037987800,1.22898779296875,-0.0010689827613532543,-0.0010689827613532543,-0.03268032893538475
1742766411040385000,1.231385009765625,0.0012216945178806782,0.009009997360408306,-0.04581354558467865
1742766411042782200,1.2337822265625,0.00015271181473508477,0.013744063675403595,-0.01954711228609085
1742766411045179600,1.2361796875,0.00030542362947016954,0.00992626789957285,0.011453386396169662
1742766411047576800,1.238576904296875,0.004123218823224306,-0.011300674639642239,0.011300674639642239
1742766411049974000,1.24097412109375,0.003970507066696882,-0.013591351918876171,-0.01252236869186163
1742766411052371200,1.24337109375,0.00259610079228878,0.01511846948415041,-0.01588202826678753
1742766411054768600,1.2457685546875,0.001374406274408102,0.0198525357991457,0.012675080448389053
1742766411057165800,1.248165771484375,0.006413896102458239,0.004886778071522713,0.023364907130599022
1742766411059549700,1.2505498046875,0.0015271181473508477,0.0036650835536420345,-0.0016798300202935934
1742766411061960400,1.25296044921875,0.00015271181473508477,0.011300674639642239,-0.025502873584628105
1742766411064357600,1.255357666015625,0.001374406274408102,0.001374406274408102,-0.01832541823387146
1742766411066754800,1.2577548828125,-0.0009162708884105086,-0.0024433890357613564,-0.005344913341104984
1742766411069152000,1.260152099609375,0.00015271181473508477,0.014965757727622986,-0.00519220158457756
1742766411071549400,1.262549560546875,0.001374406274408102,0.02244863659143448,-0.0015271181473508477
1742766411073946600,1.264946533203125,0.0015271181473508477,-0.001374406274408102,0.013744063675403595
1742766411076343800,1.26734375,0.0004581354442052543,-0.01252236869186163,0.0065666078589856625
1742766411078741000,1.269740966796875,0.00015271181473508477,0.01252236869186163,-0.014813045971095562
1742766411081138400,1.272138427734375,0.00015271181473508477,0.01511846948415041,-0.027793550863862038
1742766411083535600,1.27453564453125,-0.0022906772792339325,0.01252236869186163,-0.007635590620338917
1742766411085932800,1.276932861328125,-0.0021379655227065086,0.013591351918876171,0.012675080448389053
1742766411088330200,1.279330322265625,0.002748812548816204,0.0010689827613532543,0.02092151902616024
1742766411090727400,1.2817275390625,0.0015271181473508477,0.0036650835536420345,-0.0004581354442052543
1742766411093124600,1.28412451171875,-0.0010689827613532543,0.017561858519911766,-0.01588202826678753
1742766411095521800,1.286521728515625,-0.0021379655227065086,0.00259610079228878,-0.013591351918876171
1742766411097919200,1.288919189453125,0.002748812548816204,-0.0024433890357613564,0.0006108472589403391
1742766411100316400,1.29131640625,0.002748812548816204,0.006108472589403391,0.012675080448389053
1742766411102713600,1.293713623046875,0.003970507066696882,0.007330167107284069,0.013896775431931019
1742766411105110800,1.29611083984375,0.005344913341104984,-0.0198525357991457,0.0016798300202935934
1742766411107508000,1.298508056640625,0.003970507066696882,-0.004886778071522713,-0.010078979656100273
1742766411109905400,1.300905517578125,0.00015271181473508477,0.018630841746926308,-0.00519220158457756
1742766411112302600,1.303302490234375,-0.007024743594229221,0.012369656935334206,0.007941014133393764
1742766411114699800,1.30569970703125,-0.019088976085186005,-0.0015271181473508477,0.012675080448389053
1742766411117083600,1.308083740234375,-0.058183200657367706,-0.0032069480512291193,0.0030542362947016954
1742766411119494400,1.310494384765625,-0.0984991192817688,0.00259610079228878,-0.012369656935334206
1742766411121891600,1.3128916015625,-0.11804623156785965,0.007482878863811493,-0.012369656935334206
1742766411124275500,1.315275390625,-0.1107160672545433,0.011147962883114815,0.005650337319821119
1742766411126686200,1.317686279296875,-0.08628217875957489,0.01252236869186163,0.028251685202121735
1742766411129083400,1.32008349609375,-0.06062658876180649,0.005344913341104984,0.018630841746926308
1742766411131467300,1.32246728515625,-0.038788799196481705,-0.0016798300202935934,-0.0004581354442052543
1742766411133877800,1.324877685546875,-0.025350160896778107,-0.008857285603880882,-0.02076880633831024
1742766411136275200,1.327275146484375,-0.019394399598240852,0.0024433890357613564,-0.03268032893538475
1742766411138672400,1.32967236328125,-0.009620844386518002,0.0198525357991457,-0.011147962883114815
1742766411141069600,1.332069580078125,0.00030542362947016954,0.004886778071522713,0.016187451779842377
1742766411143467000,1.334467041015625,0.004123218823224306,-0.00519220158457756,0.03161134570837021
1742766411145850600,1.3368505859375,0.00030542362947016954,0.008704573847353458,0.0030542362947016954
1742766411148261400,1.339261474609375,0.0012216945178806782,0.017561858519911766,-0.027793550863862038
1742766411150658600,1.341658447265625,0.0038177953101694584,0.0050394898280501366,-0.014813045971095562
1742766411153056000,1.344055908203125,0.00030542362947016954,0.007330167107284069,0.009009997360408306
1742766411155453200,1.346453125,-0.0010689827613532543,0.017409147694706917,0.006719320081174374
1742766411157850400,1.348850341796875,0.00519220158457756,-0.007482878863811493,0.0065666078589856625
1742766411160247600,1.35124755859375,0.007788302376866341,-0.02244863659143448,0.007635590620338917
1742766411162645000,1.35364501953125,0.00519220158457756,0,-0.0029015245381742716
1742766411165042200,1.356042236328125,0.00519220158457756,0.007482878863811493,0.0030542362947016954
1742766411167439400,1.358439453125,0.002748812548816204,-0.00015271181473508477,0.014965757727622986
1742766411169836500,1.36083642578125,0.002748812548816204,0.011147962883114815,0.00916270911693573
1742766411172234000,1.36323388671875,0.0038177953101694584,0.02367033064365387,-0.006261184345930815
1742766411174631200,1.365631103515625,0.00259610079228878,0.0038177953101694584,-0.011300674639642239
1742766411177028400,1.3680283203125,0.002748812548816204,-0.004886778071522713,-0.0065666078589856625
1742766411179425500,1.370425537109375,-0.0010689827613532543,0.02733541466295719,0.0032069480512291193
1742766411181809700,1.3728095703125,-0.0022906772792339325,0.032222192734479904,0.021226942539215088
1742766411184220200,1.37522021484375,0.0029015245381742716,-0.002748812548816204,0.04840964451432228
1742766411186617300,1.377617431640625,0.0016798300202935934,-0.012675080448389053,0.026877280324697495
1742766411189014500,1.3800146484375,-0.0036650835536420345,0.023823043331503868,-0.025350160896778107
1742766411191412000,1.382411865234375,-0.0012216945178806782,0.023823043331503868,-0.03374931216239929
1742766411193809200,1.38480908203125,0.0015271181473508477,0.007330167107284069,0.010231691412627697
1742766411196206300,1.387206298828125,-0.0009162708884105086,0.014660334214568138,0.041384901851415634
1742766411198603800,1.389603759765625,0.00030542362947016954,0.005955760832875967,0.03298575058579445
1742766411201001000,1.3920009765625,0.002748812548816204,-0.008704573847353458,0.0065666078589856625
1742766411203398100,1.394398193359375,0.0015271181473508477,-0.0024433890357613564,-0.008857285603880882
1742766411205795300,1.39679541015625,-0.0010689827613532543,0.010078979656100273,-0.013591351918876171
1742766411208192800,1.39919287109375,0.0038177953101694584,0.013744063675403595,-0.00519220158457756
1742766411210590000,1.40158984375,0.003970507066696882,-0.0038177953101694584,0.0065666078589856625
1742766411212987100,1.403987060546875,0.0065666078589856625,-0.018630841746926308,0.008857285603880882
1742766411215384300,1.40638427734375,0.003970507066696882,-0.0050394898280501366,0.0030542362947016954
1742766411217781800,1.40878173828125,0.00259610079228878,0.016187451779842377,0.011453386396169662
1742766411220179000,1.411178955078125,0.006413896102458239,0.0024433890357613564,0.02092151902616024
1742766411222576000,1.413576171875,0.00519220158457756,0,0.005497625097632408
1742766411224973300,1.415973388671875,0.0038177953101694584,0.007635590620338917,-0.01954711228609085
1742766411227370800,1.418370849609375,0.007635590620338917,-0.007330167107284069,-0.014813045971095562
1742766411229768000,1.420767822265625,0.005344913341104984,-0.02489202655851841,0.005344913341104984
1742766411232165000,1.4231650390625,0.003970507066696882,-0.006261184345930815,0.005344913341104984
1742766411234562300,1.425562255859375,0.002748812548816204,0.013591351918876171,0.012675080448389053
1742766411236959700,1.427959716796875,0.004123218823224306,-0.003970507066696882,0.03161134570837021
1742766411239343600,1.430343505859375,0.0029015245381742716,-0.022601349279284477,0.01847812905907631
1742766411241754000,1.432754150390625,0.001374406274408102,-0.004734066314995289,-0.038788799196481705
1742766411244151600,1.435151611328125,-0.0012216945178806782,0.01038440316915512,-0.06612421572208405
1742766411246535400,1.437535400390625,0.001374406274408102,0.00015271181473508477,-0.02076880633831024
1742766411248946000,1.43994580078125,0.0029015245381742716,-0.008857285603880882,0.030389651656150818
1742766411251343000,1.442343017578125,0.0016798300202935934,0.0035123717971146107,0.042453885078430176
1742766411253740500,1.444740478515625,0.0015271181473508477,0.009773556143045425,0.029320668429136276
1742766411256137700,1.4471376953125,0.004123218823224306,-0.013744063675403595,0.0006108472589403391
1742766411258535000,1.449534912109375,0.00259610079228878,0.00015271181473508477,-0.03268032893538475
1742766411260932000,1.45193212890625,0.00015271181473508477,0.009009997360408306,-0.04214845970273018
1742766411263329500,1.45432958984375,0.0015271181473508477,-0.004886778071522713,-0.01969982497394085
1742766411265726700,1.456726806640625,0.004123218823224306,-0.010078979656100273,0.014965757727622986
1742766411268124000,1.4591240234375,0.009009997360408306,-0.007635590620338917,0.025655584409832954
1742766411270521000,1.46152099609375,0.006413896102458239,-0.0050394898280501366,0.01252236869186163
1742766411272918500,1.46391845703125,0.006413896102458239,-0.011147962883114815,-0.0065666078589856625
1742766411275315700,1.466315673828125,0.006413896102458239,-0.006108472589403391,-0.021990500390529633
1742766411277713000,1.468712890625,0.0038177953101694584,0.013896775431931019,-0.03145863488316536
1742766411280110000,1.471110107421875,0.003970507066696882,0,-0.005344913341104984
1742766411282507500,1.473507568359375,0.004123218823224306,-0.020005248486995697,0.01252236869186163
1742766411284904700,1.47590478515625,0.003970507066696882,-0.011147962883114815,-0.0006108472589403391
1742766411287302000,1.478302001953125,0.00259610079228878,0.008857285603880882,-0.01832541823387146
1742766411289699000,1.480698974609375,0.00259610079228878,0.014965757727622986,-0.002748812548816204
1742766411292096500,1.483096435546875,0.003970507066696882,0.0012216945178806782,0.014965757727622986
1742766411294493700,1.48549365234375,0.003970507066696882,0.0024433890357613564,0.004275931045413017
1742766411296877600,1.487877685546875,0.002748812548816204,-0.008551862090826035,-0.024433890357613564
1742766411299288300,1.490288330078125,0.00259610079228878,-0.008399149402976036,-0.038788799196481705
1742766411301685500,1.492685546875,0.00015271181473508477,0.011300674639642239,-0.013591351918876171
1742766411304082700,1.495082763671875,0.002748812548816204,0.01725643500685692,0.018630841746926308
1742766411306479900,1.49747998046875,0.002748812548816204,0.007330167107284069,0.025808297097682953
1742766411308877300,1.499877197265625,0.002748812548816204,0,0.012675080448389053
1742766411311274500,1.5022744140625,0.001374406274408102,0.00015271181473508477,-0.023212196305394173
1742766411313671700,1.504671630859375,0.001374406274408102,0.011453386396169662,-0.03145863488316536
1742766411316068900,1.50706884765625,0.002748812548816204,0.0038177953101694584,-0.007635590620338917
1742766411318466300,1.50946630859375,0.00519220158457756,0.0012216945178806782,0.016187451779842377
1742766411320863500,1.511863525390625,0.002748812548816204,-0.001374406274408102,0.018630841746926308
1742766411323260700,1.5142607421875,0.004123218823224306,-0.008857285603880882,0.01252236869186163
1742766411325657900,1.516657958984375,0.003970507066696882,-0.00992626789957285,0.0030542362947016954
1742766411328055300,1.51905517578125,0.006261184345930815,0.008704573847353458,-0.0016798300202935934
1742766411330452500,1.521452392578125,0.006261184345930815,0.020005248486995697,0.0007635590736754239
1742766411332849700,1.523849609375,0.0038177953101694584,0.018630841746926308,0.011606098152697086
1742766411335246800,1.526246826171875,0.002748812548816204,-0.001374406274408102,0.02092151902616024
1742766411337644300,1.528644287109375,0.00519220158457756,-0.0036650835536420345,0.0018325417768210173
1742766411340041500,1.53104150390625,0.001374406274408102,0.013744063675403595,-0.01710372418165207
1742766411342438700,1.533438720703125,0.002748812548816204,0.0050394898280501366,0.0018325417768210173
1742766411344835800,1.5358359375,0.0016798300202935934,-0.012675080448389053,0.030389651656150818
1742766411347220000,1.538219970703125,0.0004581354442052543,-0.008857285603880882,0.026877280324697495
1742766411349630500,1.54063037109375,0.00030542362947016954,-0.006261184345930815,0.0006108472589403391
1742766411352027600,1.543027587890625,0.002748812548816204,-0.012369656935334206,-0.010078979656100273
1742766411354411500,1.54541162109375,-0.0009162708884105086,-0.00992626789957285,-0.014813045971095562
1742766411356822300,1.547822265625,0.00259610079228878,0.010078979656100273,-0.014813045971095562
1742766411359219500,1.550219482421875,0.0038177953101694584,0.018630841746926308,0.004428642801940441
1742766411361616600,1.55261669921875,0.002748812548816204,0.016034740954637527,0.02229592576622963
1742766411364014000,1.55501416015625,0.003970507066696882,0.008551862090826035,0.0198525357991457
1742766411366411300,1.557411376953125,0.002748812548816204,0.0012216945178806782,-0.005344913341104984
1742766411368808400,1.559808349609375,0.001374406274408102,0.007635590620338917,-0.025502873584628105
1742766411371205600,1.56220556640625,0.0038177953101694584,0.011300674639642239,-0.01710372418165207
1742766411373603000,1.56460302734375,0.0038177953101694584,0.014965757727622986,0.00916270911693573
1742766411376000300,1.567000244140625,0.007788302376866341,-0.01252236869186163,0.030389651656150818
1742766411378397400,1.5693974609375,0.007941014133393764,-0.022601349279284477,0.026724567636847496
1742766411380794600,1.571794677734375,0.007635590620338917,-0.004886778071522713,-0.0016798300202935934
1742766411383192000,1.574192138671875,0.0050394898280501366,0.00015271181473508477,-0.021990500390529633
1742766411385589200,1.57658935546875,0.006413896102458239,0.0050394898280501366,-0.006413896102458239
1742766411387986400,1.578986328125,0.00519220158457756,0.011147962883114815,0.00916270911693573
1742766411390383600,1.581383544921875,0.006413896102458239,0.0038177953101694584,0.006719320081174374
1742766411392781000,1.583781005859375,0.008857285603880882,0.00015271181473508477,-0.004123218823224306
1742766411395178200,1.58617822265625,0.00519220158457756,-0.0010689827613532543,-0.01252236869186163
1742766411397562000,1.58856201171875,0.001374406274408102,0.011147962883114815,-0.0016798300202935934
1742766411399972600,1.59097265625,0.003970507066696882,0.012369656935334206,0.016340164467692375
1742766411402370000,1.5933701171875,0.003970507066696882,-0.00015271181473508477,0.023364907130599022
1742766411404754000,1.59575390625,0.004123218823224306,-0.011300674639642239,0.009009997360408306
1742766411407164400,1.598164306640625,0.003970507066696882,-0.010995250195264816,-0.021990500390529633
1742766411409561900,1.600561767578125,0.00259610079228878,0.006413896102458239,-0.027946261689066887
1742766411411959000,1.602958984375,0.001374406274408102,0.008704573847353458,-0.00519220158457756
1742766411414356200,1.605356201171875,0.003970507066696882,0.011147962883114815,0.017409147694706917
1742766411416753400,1.60775341796875,0.00519220158457756,0.0050394898280501366,0.006719320081174374
1742766411419150800,1.61015087890625,0.006413896102458239,-0.0012216945178806782,-0.006413896102458239
1742766411421548000,1.612548095703125,0.006413896102458239,-0.009773556143045425,-0.013744063675403595
1742766411423945200,1.6149453125,0.007635590620338917,-0.006108472589403391,-0.01725643500685692
1742766411426342400,1.61734228515625,0.002748812548816204,0.00259610079228878,-0.011300674639642239
1742766411428739800,1.61973974609375,0.003970507066696882,0.0012216945178806782,0.0018325417768210173
1742766411431137000,1.622136962890625,0.0065666078589856625,-0.020005248486995697,0.016034740954637527
1742766411433521000,1.62452099609375,0.010231691412627697,-0.012369656935334206,0.0065666078589856625
1742766411435931600,1.626931640625,0.00992626789957285,0.002748812548816204,-0.014813045971095562
1742766411438328800,1.629328857421875,0.008704573847353458,0.001374406274408102,-0.016034740954637527
1742766411440726000,1.63172607421875,0.008857285603880882,-0.0024433890357613564,0.004275931045413017
1742766411443123200,1.634123291015625,0.010078979656100273,0.010078979656100273,0.005497625097632408
1742766411445520600,1.636520751953125,0.008704573847353458,0.01252236869186163,0.001985253533348441
1742766411447917800,1.638917724609375,0.006413896102458239,-0.0012216945178806782,-0.006413896102458239
1742766411450315000,1.64131494140625,0.006413896102458239,-0.013591351918876171,-0.011300674639642239
1742766411452712200,1.643712158203125,0.0038177953101694584,0.007635590620338917,-0.010078979656100273
1742766411455096000,1.646095947265625,0.0038177953101694584,0.017409147694706917,0.005497625097632408
1742766411457506800,1.6485068359375,0.005344913341104984,-0.001374406274408102,0.024586603045463562
1742766411459904000,1.650904052734375,0.004123218823224306,-0.011300674639642239,0.01969982497394085
1742766411462288000,1.653287841796875,0.00519220158457756,-0.009773556143045425,-0.013744063675403595
1742766411464698600,1.65569873046875,0.00259610079228878,0.007635590620338917,-0.025502873584628105
1742766411467095800,1.658095703125,0.003970507066696882,0.001374406274408102,-0.006413896102458239
1742766411469493000,1.660492919921875,0.006413896102458239,0.0012216945178806782,0.016187451779842377
1742766411471890200,1.66289013671875,0.00519220158457756,0.014813045971095562,0.024586603045463562
1742766411474287600,1.66528759765625,0.00519220158457756,0.006108472589403391,0.012675080448389053
1742766411476671500,1.66767138671875,0.006413896102458239,-0.011147962883114815,-0.004123218823224306
1742766411479082000,1.67008203125,0.0050394898280501366,0.001374406274408102,-0.025502873584628105
1742766411481479200,1.672479248046875,0.0036650835536420345,0.02764083817601204,-0.026571854948997498
1742766411483876600,1.674876708984375,0.006261184345930815,0.013744063675403595,0.011453386396169662
1742766411486273800,1.677273681640625,0.00916270911693573,-0.02764083817601204,0.039857782423496246
1742766411488671000,1.6796708984375,0.007788302376866341,-0.014965757727622986,0.01969982497394085
1742766411491054800,1.682054931640625,0.007482878863811493,0.00519220158457756,-0.01954711228609085
1742766411493465600,1.684465576171875,0.006261184345930815,0.00015271181473508477,-0.016034740954637527
1742766411495862800,1.68686279296875,0.007635590620338917,0.0038177953101694584,0.0007635590736754239
1742766411498260000,1.689260009765625,0.006261184345930815,0.02367033064365387,0.001985253533348441
1742766411500657200,1.6916572265625,0.007635590620338917,0.006261184345930815,0.010231691412627697
1742766411503054600,1.6940546875,0.007788302376866341,-0.02870982140302658,0.010078979656100273
1742766411505451800,1.69645166015625,0.002748812548816204,-0.0024433890357613564,-0.014813045971095562
1742766411507849000,1.698848876953125,0.0024433890357613564,0.03497100621461868,-0.022906772792339325
1742766411510246100,1.70124609375,0.00519220158457756,0.006108472589403391,0.016187451779842377
1742766411512630300,1.70363037109375,0.006719320081174374,-0.03374931216239929,0.03512371703982353
1742766411515040800,1.706040771484375,0.002748812548816204,-0.014965757727622986,-0.0065666078589856625
1742766411517438000,1.70843798828125,0.0012216945178806782,0.017714571207761765,-0.04337015375494957
1742766411519835400,1.71083544921875,0.00015271181473508477,0.010078979656100273,-0.01832541823387146
1742766411522232600,1.713232666015625,0.005344913341104984,-0.007635590620338917,0.023364907130599022
1742766411524629800,1.715629638671875,0.00519220158457756,-0.001374406274408102,0.024586603045463562
1742766411527027000,1.71802685546875,0.0038177953101694584,0.008704573847353458,0.0007635590736754239
1742766411529424400,1.72042431640625,0.003970507066696882,0.006261184345930815,0.0007635590736754239
1742766411531821600,1.722821533203125,0.006413896102458239,-0.0036650835536420345,-0.007635590620338917
1742766411534218800,1.72521875,0.00259610079228878,0.00259610079228878,-0.023212196305394173
1742766411536616000,1.727615966796875,0.0050394898280501366,0.00015271181473508477,-0.01954711228609085
1742766411539013400,1.730013427734375,0.007635590620338917,-0.011147962883114815,-0.0018325417768210173
1742766411541410600,1.73241064453125,0.006413896102458239,-0.006261184345930815,0.010231691412627697
1742766411543807700,1.734807861328125,0.007635590620338917,-0.00259610079228878,0.018630841746926308
1742766411546205200,1.737205078125,0.007788302376866341,-0.013744063675403595,0.009009997360408306
1742766411548602400,1.739602294921875,0.006413896102458239,-0.0024433890357613564,-0.007635590620338917
1742766411550999600,1.74199951171875,0.008704573847353458,0.016340164467692375,-0.021837789565324783
1742766411553396700,1.744396728515625,0.00992626789957285,0.017714571207761765,-0.01832541823387146
1742766411555794000,1.7467939453125,0.007635590620338917,-0.0036650835536420345,0.0065666078589856625
1742766411558191400,1.74919140625,0.007788302376866341,-0.014965757727622986,0.0006108472589403391
1742766411560588500,1.751588623046875,0.0050394898280501366,-0.0010689827613532543,-0.024433890357613564
1742766411562972400,1.753972412109375,0.0050394898280501366,0.018783552572131157,-0.01588202826678753
1742766411565383200,1.756383056640625,0.007635590620338917,0.004886778071522713,0.02092151902616024
1742766411567780400,1.7587802734375,0.007788302376866341,-0.011300674639642239,0.026877280324697495
1742766411570164200,1.761164306640625,0.00519220158457756,0.0038177953101694584,-0.006413896102458239
1742766411572574700,1.76357470703125,0.007482878863811493,0.00030542362947016954,-0.039857782423496246
1742766411574972200,1.76597216796875,0.006261184345930815,0.005344913341104984,-0.037414394319057465
1742766411577356000,1.76835595703125,0.008704573847353458,0.014965757727622986,0.001985253533348441
1742766411579766500,1.7707666015625,0.006413896102458239,0.016034740954637527,0.024586603045463562
1742766411582163700,1.773163818359375,0.00519220158457756,0.013591351918876171,0.017409147694706917
1742766411584547800,1.7755478515625,0.008857285603880882,0.00015271181473508477,-0.012369656935334206
1742766411586958300,1.777958251953125,0.007330167107284069,0.022601349279284477,-0.027793550863862038
1742766411589355500,1.78035546875,0.006108472589403391,0.022601349279284477,-0.01710372418165207
1742766411591753000,1.7827529296875,0.007635590620338917,0.001374406274408102,-0.0016798300202935934
1742766411594150100,1.785150146484375,0.008857285603880882,0.008704573847353458,0.004275931045413017
1742766411596547300,1.78754736328125,0.007482878863811493,0.01252236869186163,-0.002748812548816204
1742766411598944500,1.789944580078125,0.007482878863811493,0.00992626789957285,0.005497625097632408
1742766411601342000,1.792342041015625,0.007635590620338917,-0.0050394898280501366,0.011453386396169662
1742766411603739100,1.7947392578125,0.006261184345930815,0.011300674639642239,-0.006413896102458239
1742766411606136300,1.79713623046875,0.008551862090826035,0.03008422814309597,-0.01710372418165207
1742766411608533500,1.799533447265625,0.00992626789957285,0.013744063675403595,0.0032069480512291193
1742766411610931000,1.801930908203125,0.007788302376866341,-0.0050394898280501366,0.026877280324697495
1742766411613314800,1.804314697265625,0.003970507066696882,-0.0036650835536420345,0.0006108472589403391
1742766411615725300,1.806725341796875,0.00259610079228878,0.013896775431931019,-0.02901524491608143
1742766411618122500,1.80912255859375,0.0038177953101694584,0.02244863659143448,-0.011147962883114815
1742766411620520000,1.81152001953125,0.003970507066696882,0.01725643500685692,0.02351761981844902
1742766411622917000,1.813917236328125,0.0065666078589856625,-0.0038177953101694584,0.026877280324697495
1742766411625314300,1.816314208984375,0.007635590620338917,-0.016034740954637527,-0.005344913341104984
1742766411627711500,1.81871142578125,0.0050394898280501366,0.008857285603880882,-0.025502873584628105
1742766411630109000,1.82110888671875,0.006261184345930815,0.01511846948415041,-0.00992626789957285
1742766411632506000,1.823506103515625,0.00519220158457756,-0.001374406274408102,0.017409147694706917
1742766411634890000,1.825889892578125,0.00519220158457756,0.0024433890357613564,0.018630841746926308
1742766411637300500,1.828300537109375,0.0050394898280501366,0.017561858519911766,-0.007635590620338917
1742766411639698000,1.830697998046875,0.0050394898280501366,0.017561858519911766,-0.01832541823387146
1742766411642095000,1.83309521484375,0.007635590620338917,-0.0010689827613532543,-0.010078979656100273
1742766411644492300,1.8354921875,0.00519220158457756,0.001374406274408102,-0.010078979656100273
1742766411646889700,1.8378896484375,0.008704573847353458,0.010078979656100273,-0.006413896102458239
1742766411649287000,1.840286865234375,0.011300674639642239,0.007482878863811493,0.009009997360408306
1742766411651684000,1.84268408203125,0.011300674639642239,-0.0024433890357613564,0.018630841746926308
1742766411654081300,1.845081298828125,0.010078979656100273,0,0.013744063675403595
1742766411656478700,1.847478759765625,0.011300674639642239,0.001374406274408102,0.0006108472589403391
1742766411658876000,1.8498759765625,0.00992626789957285,0.006261184345930815,-0.0029015245381742716
1742766411661273000,1.852273193359375,0.007482878863811493,0.008704573847353458,0.0007635590736754239
1742766411663670300,1.854670166015625,0.006261184345930815,0.01252236869186163,-0.00519220158457756
1742766411666067500,1.8570673828125,0.006261184345930815,0.011300674639642239,-0.003970507066696882
1742766411668465000,1.85946484375,0.008857285603880882,0.0038177953101694584,0.0007635590736754239
1742766411670862000,1.861862060546875,0.006413896102458239,-0.0024433890357613564,0.0030542362947016954
1742766411673259300,1.86425927734375,0.0038177953101694584,0.017409147694706917,-0.002748812548816204
1742766411675656700,1.86665673828125,0.0050394898280501366,0.02244863659143448,0.00916270911693573
1742766411678054000,1.869053955078125,0.006413896102458239,-0.00015271181473508477,0.02092151902616024
1742766411680451000,1.871451171875,0.004123218823224306,-0.00992626789957285,0.005344913341104984
1742766411682848300,1.87384814453125,0.0038177953101694584,0.002748812548816204,-0.03512371703982353
1742766411685245700,1.87624560546875,0.0050394898280501366,0.009009997360408306,-0.03512371703982353
1742766411687643000,1.878642822265625,0.007635590620338917,-0.0036650835536420345,0.0065666078589856625
1742766411690040000,1.8810400390625,0.007635590620338917,-0.00015271181473508477,0.024586603045463562
1742766411692437200,1.883437255859375,0.006413896102458239,-0.00259610079228878,0.01252236869186163
1742766411694834700,1.885834716796875,0.00519220158457756,-0.011147962883114815,-0.0006108472589403391
1742766411697232000,1.88823193359375,0.006413896102458239,-0.0035123717971146107,-0.023212196305394173
1742766411699629000,1.890629150390625,0.007482878863811493,0.005344913341104984,-0.04230117425322533
1742766411702026500,1.893026611328125,0.008704573847353458,0.010231691412627697,-0.02901524491608143
1742766411704423700,1.895423583984375,0.011300674639642239,-0.0036650835536420345,0.004275931045413017
1742766411706820900,1.89782080078125,0.013896775431931019,-0.016187451779842377,0.01725643500685692
1742766411709218000,1.900218017578125,0.01511846948415041,-0.016034740954637527,0.007788302376866341
1742766411711615500,1.902615478515625,0.011300674639642239,-0.0024433890357613564,-0.0016798300202935934
1742766411714012700,1.9050126953125,0.008704573847353458,0.011300674639642239,-0.0029015245381742716
1742766411716409900,1.907409912109375,0.010078979656100273,-0.0036650835536420345,-0.005344913341104984
1742766411718807000,1.90980712890625,0.011300674639642239,-0.013438640162348747,-0.01847812905907631
1742766411721204200,1.912204345703125,0.007482878863811493,0.006413896102458239,-0.023212196305394173
1742766411723601700,1.9146015625,0.008704573847353458,0.007635590620338917,-0.010078979656100273
1742766411725998800,1.916998779296875,0.009009997360408306,-0.008704573847353458,0.01252236869186163
1742766411728396000,1.91939599609375,0.007788302376866341,-0.013744063675403595,0.010078979656100273
1742766411730793500,1.92179345703125,0.008857285603880882,0.0038177953101694584,-0.00519220158457756
1742766411733190700,1.924190673828125,0.007482878863811493,0.010078979656100273,-0.011147962883114815
1742766411735587800,1.926587890625,0.007635590620338917,0.0050394898280501366,-0.0004581354442052543
1742766411737985000,1.928985107421875,0.008857285603880882,-0.004886778071522713,0.004275931045413017
1742766411740382500,1.931382568359375,0.006413896102458239,-0.008551862090826035,-0.011300674639642239
1742766411742766300,1.933766357421875,0.006261184345930815,0.006413896102458239,-0.010078979656100273
1742766411745176800,1.9361767578125,0.007482878863811493,0.014965757727622986,0.013896775431931019
1742766411747574000,1.938573974609375,0.009009997360408306,-0.00015271181473508477,0.028098974376916885
1742766411749958100,1.940958251953125,0.009009997360408306,-0.007482878863811493,0.01252236869186163
1742766411752368600,1.94336865234375,0.008857285603880882,-0.008551862090826035,-0.025655584409832954
1742766411754765800,1.945765869140625,0.007482878863811493,-0.0009162708884105086,-0.039857782423496246
1742766411757149700,1.948149658203125,0.010078979656100273,0.0050394898280501366,0.0007635590736754239
1742766411759560400,1.950560546875,0.010231691412627697,-0.0038177953101694584,0.03649812191724777
1742766411761957600,1.95295751953125,0.009009997360408306,-0.016340164467692375,0.03512371703982353
1742766411764341500,1.955341552734375,0.011453386396169662,-0.017409147694706917,0.007788302376866341
1742766411766752300,1.957752197265625,0.007482878863811493,0.00015271181473508477,-0.01954711228609085
1742766411769149400,1.9601494140625,0.007482878863811493,0.010078979656100273,-0.014813045971095562
1742766411771546600,1.962546630859375,0.008857285603880882,-0.004886778071522713,0.0018325417768210173
1742766411773943800,1.96494384765625,0.007788302376866341,-0.012369656935334206,0.0065666078589856625
1742766411776341000,1.967341064453125,0.0065666078589856625,-0.013744063675403595,0.004123218823224306
1742766411778738400,1.969738525390625,0.0065666078589856625,-0.017409147694706917,-0.0006108472589403391
1742766411781135600,1.972135498046875,0.006413896102458239,-0.00992626789957285,0.0030542362947016954
1742766411783532800,1.97453271484375,0.00519220158457756,0.0050394898280501366,0.006719320081174374
1742766411785930200,1.97693017578125,0.007635590620338917,0.007482878863811493,-0.0004581354442052543
1742766411788327400,1.979327392578125,0.006413896102458239,-0.007330167107284069,-0.011300674639642239
1742766411790724600,1.981724609375,0.002748812548816204,-0.008704573847353458,-0.010078979656100273
1742766411793121800,1.984121826171875,0.003970507066696882,0.0038177953101694584,-0.004123218823224306
1742766411795519200,1.986519287109375,0.00519220158457756,0,-0.0016798300202935934
1742766411797916400,1.98891650390625,0.003970507066696882,-0.0012216945178806782,0.0065666078589856625
1742766411800313600,1.991313720703125,0.006413896102458239,0.0012216945178806782,0.014965757727622986
1742766411802710800,1.993710693359375,0.00519220158457756,0.0012216945178806782,0.009009997360408306
1742766411805108200,1.996108154296875,0.006413896102458239,0,-0.0029015245381742716
1742766411807505400,1.99850537109375,0.007635590620338917,-0.009773556143045425,-0.016034740954637527
1742766411809902600,2.000902587890625,0.0050394898280501366,0.001374406274408102,-0.01725643500685692
1742766411812300000,2.003300048828125,0.006413896102458239,0.0038177953101694584,-0.004123218823224306
1742766411814697200,2.005697265625,0.006413896102458239,-0.0012216945178806782,0.013744063675403595
1742766411817094400,2.008094482421875,0.007788302376866341,-0.0050394898280501366,0.017409147694706917
1742766411819491600,2.01049169921875,0.008857285603880882,0,0.006719320081174374
1742766411821889000,2.012888916015625,0.006261184345930815,0.008704573847353458,-0.0004581354442052543
1742766411824286200,2.0152861328125,0.006413896102458239,0.001374406274408102,-0.0029015245381742716
1742766411826683400,2.017683349609375,0.008857285603880882,-0.0012216945178806782,0.0018325417768210173
1742766411829080600,2.02008056640625,0.00519220158457756,0.006261184345930815,0.0030542362947016954
1742766411831478000,2.02247802734375,0.002748812548816204,0.0050394898280501366,0.0007635590736754239
1742766411833875200,2.024875244140625,0.003970507066696882,-0.006261184345930815,0.0030542362947016954
1742766411836272400,2.0272724609375,0.00519220158457756,-0.0024433890357613564,0.0030542362947016954
1742766411838669600,2.029669677734375,0.00519220158457756,0.008704573847353458,0.005497625097632408
1742766411841067000,2.03206689453125,0.00519220158457756,-0.0024433890357613564,0.0006108472589403391
1742766411843464200,2.034464111328125,0.006413896102458239,-0.011147962883114815,-0.007788302376866341
1742766411845861400,2.036861328125,0.003970507066696882,-0.006108472589403391,-0.01252236869186163
1742766411848258600,2.039258544921875,0.003970507066696882,-0.004886778071522713,-0.016034740954637527
1742766411850656000,2.041656005859375,0.003970507066696882,-0.004886778071522713,-0.0016798300202935934
1742766411853053200,2.04405322265625,0.003970507066696882,0,0.013744063675403595
1742766411855450400,2.046450439453125,0.00519220158457756,0.00992626789957285,0.007941014133393764
1742766411857847600,2.04884765625,0.006413896102458239,0.00259610079228878,0.0007635590736754239
1742766411860245000,2.051244873046875,0.007788302376866341,-0.013591351918876171,-0.0006108472589403391
1742766411862642200,2.05364208984375,0.006413896102458239,-0.014813045971095562,-0.016187451779842377
1742766411865039400,2.056039306640625,0.007482878863811493,-0.0010689827613532543,-0.025502873584628105
1742766411867436800,2.058436767578125,0.007635590620338917,0.001374406274408102,0.0007635590736754239
1742766411869834000,2.060833984375,0.008857285603880882,0.004886778071522713,0.023364907130599022
1742766411872231200,2.063231201171875,0.010078979656100273,0,0.016187451779842377
1742766411874628400,2.06562841796875,0.008857285603880882,-0.006108472589403391,-0.0016798300202935934
1742766411877025800,2.06802587890625,0.008857285603880882,-0.0022906772792339325,-0.010078979656100273
1742766411879423000,2.070423095703125,0.008704573847353458,0.007635590620338917,-0.008857285603880882
1742766411881820200,2.072820068359375,0.007482878863811493,0.01252236869186163,0.006719320081174374
1742766411884217300,2.07521728515625,0.007635590620338917,-0.0024433890357613564,0.004275931045413017
1742766411886601200,2.077601318359375,0.007635590620338917,-0.0024433890357613564,-0.0016798300202935934
1742766411889012000,2.080011962890625,0.00259610079228878,0.020005248486995697,0.0007635590736754239
1742766411891409200,2.0824091796875,0.003970507066696882,0.00992626789957285,0.012675080448389053
1742766411893806300,2.084806396484375,0.0065666078589856625,-0.011300674639642239,0.01847812905907631
1742766411896203800,2.087203857421875,0.006413896102458239,0.0036650835536420345,0.007788302376866341
1742766411898601000,2.08960107421875,0.0038177953101694584,0.011300674639642239,-0.006413896102458239
1742766411900998100,2.091998046875,0.006413896102458239,-0.006261184345930815,0.01252236869186163
1742766411903395300,2.094395263671875,0.0065666078589856625,-0.011300674639642239,0.026877280324697495
1742766411905792800,2.096792724609375,0.002748812548816204,0.008704573847353458,0.001985253533348441
1742766411908176600,2.0991767578125,0.0038177953101694584,0.008857285603880882,-0.014813045971095562
1742766411910587100,2.101587158203125,0.00519220158457756,0.00015271181473508477,-0.011300674639642239
1742766411912984600,2.103984619140625,0.00519220158457756,0.0038177953101694584,-0.004123218823224306
1742766411915368400,2.106368408203125,0.0050394898280501366,0.017409147694706917,-0.0015271181473508477
1742766411917779000,2.108779052734375,0.00259610079228878,0.020005248486995697,0.0007635590736754239
1742766411920176000,2.111176025390625,0.00519220158457756,0,0.004275931045413017
1742766411922573600,2.113573486328125,0.00519220158457756,-0.0012216945178806782,0.009009997360408306
1742766411924970800,2.115970703125,0.0050394898280501366,0.02489202655851841,0.007941014133393764
1742766411927368000,2.118367919921875,0.007635590620338917,0.00992626789957285,0.013896775431931019
1742766411929765000,2.12076513671875,0.007788302376866341,-0.018783552572131157,0.01252236869186163
1742766411932162600,2.12316259765625,0.00519220158457756,-0.01725643500685692,-0.01252236869186163
1742766411934559700,2.125559814453125,0.006261184345930815,0.002748812548816204,-0.026724567636847496
1742766411936943600,2.127943603515625,0.007635590620338917,-0.006261184345930815,0.010231691412627697
1742766411939354000,2.13035400390625,0.005497625097632408,-0.017714571207761765,0.040010496973991394
1742766411941751600,2.13275146484375,0.005344913341104984,-0.017561858519911766,0.01725643500685692
1742766411944148700,2.135148681640625,0.0015271181473508477,-0.006108472589403391,-0.01725643500685692
1742766411946546000,2.1375458984375,0.002748812548816204,-0.004886778071522713,-0.01847812905907631
1742766411948943000,2.139943115234375,0.003970507066696882,-0.00992626789957285,-0.011300674639642239
1742766411951340500,2.142340576171875,0.0050394898280501366,0.0050394898280501366,-0.010078979656100273
1742766411953737700,2.14473779296875,0.00259610079228878,0.011300674639642239,-0.006413896102458239
1742766411956135000,2.147135009765625,0.002748812548816204,-0.0050394898280501366,0.007788302376866341
1742766411958532000,2.149531982421875,0.0016798300202935934,-0.011453386396169662,0.026877280324697495
1742766411960929500,2.151929443359375,-0.0009162708884105086,0.0010689827613532543,0.017409147694706917
1742766411963326700,2.15432666015625,0.00030542362947016954,0.006108472589403391,0.012675080448389053
1742766411965724000,2.156723876953125,0.003970507066696882,-0.001374406274408102,0.012675080448389053
1742766411968121300,2.159121337890625,0.005344913341104984,-0.014965757727622986,-0.0018325417768210173
1742766411970518500,2.1615185546875,0.00519220158457756,-0.012369656935334206,-0.02092151902616024
1742766411972915700,2.163915771484375,0.00519220158457756,-0.007177455350756645,-0.03161134570837021
1742766411975313000,2.16631298828125,0.007635590620338917,-0.012216945178806782,-0.01725643500685692
1742766411977710300,2.16871044921875,0.007788302376866341,-0.017409147694706917,0.0006108472589403391
1742766411980107500,2.171107421875,0.007788302376866341,-0.01252236869186163,0.009009997360408306
1742766411982504700,2.173504638671875,0.007788302376866341,-0.008704573847353458,0.01725643500685692
1742766411984902000,2.17590185546875,0.007788302376866341,-0.00992626789957285,0.013744063675403595
1742766411987285800,2.17828564453125,0.006413896102458239,-0.0024433890357613564,-0.0016798300202935934
1742766411989696500,2.180696533203125,0.007482878863811493,0.001374406274408102,-0.01725643500685692
1742766411992093700,2.18309375,0.007635590620338917,-0.0022906772792339325,-0.014813045971095562
1742766411994477600,2.1854775390625,0.00259610079228878,0.007482878863811493,-0.006413896102458239
1742766411996888300,2.187888427734375,0.003970507066696882,0.0024433890357613564,0.009009997360408306
1742766411999285500,2.190285400390625,0.003970507066696882,0.004886778071522713,0.011453386396169662
1742766412001682700,2.1926826171875,0.003970507066696882,-0.001374406274408102,0.014965757727622986
1742766412004079900,2.195079833984375,0.002748812548816204,-0.00992626789957285,0.0030542362947016954
1742766412006477300,2.197477294921875,0.0015271181473508477,-0.0012216945178806782,-0.01725643500685692
1742766412008874500,2.19987451171875,0.001374406274408102,0.00259610079228878,-0.027946261689066887
1742766412011271700,2.202271728515625,0.0015271181473508477,0.0024433890357613564,-0.004123218823224306
1742766412013668900,2.2046689453125,0.0029015245381742716,-0.014965757727622986,0.009009997360408306
1742766412016053000,2.207052978515625,0.004123218823224306,-0.0198525357991457,-0.01252236869186163
1742766412018463500,2.20946337890625,0.003970507066696882,-0.004886778071522713,-0.023212196305394173
1742766412020860700,2.211860595703125,0.0038177953101694584,0.00992626789957285,-0.0004581354442052543
1742766412023258000,2.214258056640625,0.00519220158457756,0.0010689827613532543,0.02092151902616024
1742766412025655300,2.2166552734375,0.004123218823224306,-0.01252236869186163,0.013744063675403595
1742766412028052500,2.219052490234375,0.003970507066696882,-0.007330167107284069,-0.01725643500685692
1742766412030449700,2.22144970703125,0.007482878863811493,0.007788302376866341,-0.03512371703982353
1742766412032847000,2.22384716796875,0.007482878863811493,0.010078979656100273,-0.008857285603880882
1742766412035244300,2.226244384765625,0.006413896102458239,0.0036650835536420345,0.0198525357991457
1742766412037641500,2.228641357421875,0.005344913341104984,-0.010078979656100273,0.014965757727622986
1742766412040038700,2.23103857421875,0.006413896102458239,-0.0036650835536420345,-0.004123218823224306
1742766412042435800,2.233435791015625,0.00259610079228878,0.006261184345930815,-0.008857285603880882
1742766412044833300,2.235833251953125,0.007635590620338917,0.00259610079228878,-0.0016798300202935934
1742766412047230500,2.23823046875,0.007635590620338917,-0.004886778071522713,0.0018325417768210173
1742766412049627600,2.240627685546875,0.0038177953101694584,0.0050394898280501366,-0.013591351918876171
1742766412052025000,2.243025146484375,0.003970507066696882,-0.0035123717971146107,-0.021990500390529633
1742766412054422300,2.24542236328125,0.00519220158457756,-0.017409147694706917,-0.011300674639642239
1742766412056819500,2.2478193359375,0.002748812548816204,-0.0050394898280501366,-0.0016798300202935934
1742766412059216600,2.250216552734375,0.003970507066696882,0.004886778071522713,0.006719320081174374
1742766412061614000,2.252614013671875,0.00519220158457756,-0.0038177953101694584,0.007788302376866341
1742766412064011300,2.25501123046875,0.003970507066696882,-0.007482878863811493,-0.007788302376866341
1742766412066408400,2.257408447265625,0.0050394898280501366,0.0050394898280501366,-0.013591351918876171
1742766412068805600,2.2598056640625,0.00519220158457756,0.0038177953101694584,-0.007635590620338917
1742766412071203000,2.262203125,0.0015271181473508477,-0.013744063675403595,-0.0030542362947016954
1742766412073600300,2.264600341796875,0.0015271181473508477,-0.018630841746926308,-0.01725643500685692
1742766412075997400,2.26699755859375,0.00259610079228878,0.008857285603880882,-0.016034740954637527
1742766412078395000,2.269394775390625,0.0038177953101694584,0.016187451779842377,0.0032069480512291193
1742766412080792000,2.2717919921875,0.0065666078589856625,-0.018783552572131157,0.01969982497394085
1742766412083189200,2.274189208984375,0.007788302376866341,-0.02733541466295719,-0.007788302376866341
1742766412085586400,2.27658642578125,0.006261184345930815,-0.004581354558467865,-0.04474456235766411
1742766412087970300,2.27897021484375,0.007482878863811493,-0.0035123717971146107,-0.03161134570837021
1742766412090381000,2.281381103515625,0.007788302376866341,-0.007482878863811493,0.014965757727622986
1742766412092778200,2.2837783203125,0.007788302376866341,-0.01511846948415041,0.03405473381280899
1742766412095175400,2.286175537109375,0.0065666078589856625,-0.014965757727622986,0.01847812905907631
1742766412097572600,2.288572509765625,0.007635590620338917,-0.008551862090826035,-0.010078979656100273
1742766412099970000,2.290969970703125,0.0050394898280501366,0.0015271181473508477,-0.027946261689066887
1742766412102367200,2.2933671875,0.00519220158457756,0.00015271181473508477,-0.011300674639642239
1742766412104764400,2.295764404296875,0.004123218823224306,-0.013744063675403595,0.005344913341104984
1742766412107161900,2.298161865234375,0.004123218823224306,-0.014965757727622986,0.0065666078589856625
1742766412109559000,2.30055908203125,0.006413896102458239,-0.0012216945178806782,-0.006413896102458239
1742766412111956200,2.302956298828125,0.00519220158457756,-0.0024433890357613564,-0.010078979656100273
1742766412114353400,2.305353515625,0.00519220158457756,-0.011147962883114815,-0.007788302376866341
1742766412116750800,2.307750732421875,0.00519220158457756,-0.004886778071522713,-0.01725643500685692
1742766412119148000,2.31014794921875,0.00259610079228878,0.00519220158457756,-0.027946261689066887
1742766412121545200,2.312545166015625,0.006413896102458239,-0.006108472589403391,-0.007635590620338917
1742766412123942400,2.3149423828125,0.004123218823224306,-0.010078979656100273,0.014965757727622986
1742766412126339800,2.31733984375,0.002748812548816204,-0.006261184345930815,0.0030542362947016954
1742766412128737000,2.319737060546875,0.003970507066696882,-0.0022906772792339325,-0.01725643500685692
1742766412131134200,2.32213427734375,0.00519220158457756,-0.0024433890357613564,-0.011300674639642239
1742766412133531600,2.32453173828125,0.006413896102458239,0.006261184345930815,-0.004123218823224306
1742766412135928800,2.3269287109375,0.007482878863811493,0.008857285603880882,-0.0016798300202935934
1742766412138326000,2.329325927734375,0.010078979656100273,-0.00992626789957285,-0.0029015245381742716
1742766412140723200,2.33172314453125,0.010078979656100273,-0.012216945178806782,-0.01252236869186163
1742766412143120400,2.334120361328125,0.006261184345930815,0.013896775431931019,-0.012369656935334206
1742766412145517800,2.336517822265625,0.008704573847353458,0.017561858519911766,0.004428642801940441
1742766412147915000,2.3389150390625,0.006413896102458239,0.0024433890357613564,0.014965757727622986
1742766412150312200,2.341312255859375,0.007635590620338917,0.0038177953101694584,0.005497625097632408
1742766412152709400,2.34370947265625,0.006261184345930815,0.01511846948415041,-0.011147962883114815
1742766412155106800,2.34610693359375,0.006261184345930815,0.01252236869186163,0.001985253533348441
1742766412157504000,2.34850390625,0.00519220158457756,0.0012216945178806782,0.007788302376866341
1742766412159901200,2.350901123046875,0.006261184345930815,0.010078979656100273,0.0007635590736754239
1742766412162298600,2.353298583984375,0.00519220158457756,0.0038177953101694584,-0.0029015245381742716
1742766412164695800,2.35569580078125,0.003970507066696882,-0.0050394898280501366,0.004275931045413017
1742766412167093000,2.358093017578125,0.003970507066696882,-0.0038177953101694584,0.0065666078589856625
1742766412169490200,2.360490234375,0.003970507066696882,0.0036650835536420345,0.009009997360408306
1742766412171887600,2.3628876953125,0.003970507066696882,0.007482878863811493,0.011453386396169662
1742766412174284800,2.365284912109375,0.003970507066696882,0.0012216945178806782,0.0018325417768210173
1742766412176682000,2.367681884765625,0.002748812548816204,0.0012216945178806782,0.0030542362947016954
1742766412179079200,2.3700791015625,0.003970507066696882,-0.0050394898280501366,0.007788302376866341
1742766412181476600,2.3724765625,0.003970507066696882,-0.0050394898280501366,0.005497625097632408
1742766412183873800,2.374873779296875,0.002748812548816204,-0.0024433890357613564,-0.0004581354442052543
1742766412186271000,2.37727099609375,0.003970507066696882,-0.004886778071522713,-0.011300674639642239
1742766412188668400,2.37966845703125,0.006413896102458239,-0.0010689827613532543,-0.01252236869186163
1742766412191065600,2.382065673828125,0.006413896102458239,-0.0036650835536420345,0.0018325417768210173
1742766412193462800,2.384462890625,0.007635590620338917,-0.006261184345930815,0.011453386396169662
1742766412195846700,2.3868466796875,0.009009997360408306,-0.013591351918876171,0.004123218823224306
1742766412198257200,2.389257080078125,0.006413896102458239,-0.011147962883114815,-0.009009997360408306
1742766412200654600,2.391654541015625,0.006261184345930815,0.013744063675403595,-0.006413896102458239
1742766412203051800,2.3940517578125,0.008704573847353458,0.014965757727622986,0.0032069480512291193
1742766412205449000,2.396448974609375,0.007635590620338917,0,0.004275931045413017
1742766412207846100,2.39884619140625,0.010078979656100273,0.00015271181473508477,-0.013591351918876171
1742766412210230300,2.401230224609375,0.008704573847353458,0.00030542362947016954,-0.029167955741286278
1742766412212640800,2.403640869140625,0.008857285603880882,-0.006108472589403391,-0.011300674639642239
1742766412215038000,2.406037841796875,0.007788302376866341,-0.010078979656100273,0.01969982497394085
1742766412217435400,2.408435302734375,0.007788302376866341,-0.008857285603880882,0.030389651656150818
1742766412219832600,2.41083251953125,0.007635590620338917,0,0.014965757727622986
1742766412222229800,2.413229736328125,0.007635590620338917,-0.007330167107284069,-0.005344913341104984
1742766412224613600,2.415613525390625,0.0050394898280501366,-0.0035123717971146107,-0.037567105144262314
1742766412227024400,2.4180244140625,0.0012216945178806782,0.016492875292897224,-0.04932591691613197
1742766412229421600,2.420421630859375,0.0050394898280501366,0.012675080448389053,-0.025502873584628105
1742766412231805400,2.422805419921875,0.007635590620338917,-0.0038177953101694584,0.016187451779842377
1742766412234216000,2.4252158203125,0.007788302376866341,-0.001374406274408102,0.03405473381280899
1742766412236613400,2.42761328125,0.00519220158457756,0.004886778071522713,0.011453386396169662
1742766412239010600,2.430010498046875,0.006413896102458239,0.0050394898280501366,0.0018325417768210173
1742766412241407700,2.43240771484375,0.00519220158457756,0.0038177953101694584,-0.0004581354442052543
1742766412243805200,2.43480517578125,0.0050394898280501366,0.008857285603880882,-0.007635590620338917
1742766412246202400,2.437202392578125,0.00519220158457756,0.00259610079228878,-0.011300674639642239
1742766412248599600,2.439599609375,0.007788302376866341,-0.018630841746926308,-0.0065666078589856625
1742766412250996700,2.441996826171875,0.010231691412627697,-0.02473931387066841,-0.013744063675403595
1742766412253380600,2.444380615234375,0.011300674639642239,-0.0010689827613532543,-0.01252236869186163
1742766412255791400,2.446791259765625,0.008857285603880882,-0.0012216945178806782,0.014965757727622986
1742766412258188500,2.4491884765625,0.012675080448389053,-0.020005248486995697,0.025655584409832954
1742766412260572400,2.451572509765625,0.010231691412627697,-0.018630841746926308,0.005344913341104984
1742766412262983200,2.453983154296875,0.011147962883114815,-0.0009162708884105086,-0.03268032893538475
1742766412265380400,2.45638037109375,0.008704573847353458,-0.0035123717971146107,-0.029167955741286278
1742766412267777500,2.458777587890625,0.009009997360408306,-0.016187451779842377,0.0006108472589403391
1742766412270174700,2.4611748046875,0.010078979656100273,-0.0024433890357613564,0.010231691412627697
1742766412272572200,2.463572265625,0.0050394898280501366,0.0198525357991457,0.01038440316915512
1742766412274969300,2.46596923828125,0.00519220158457756,0.004886778071522713,0.012675080448389053
1742766412277366500,2.468366455078125,0.007788302376866341,-0.0261137206107378,0.0029015245381742716
1742766412279763700,2.470763671875,0.006413896102458239,-0.014660334214568138,-0.028098974376916885
1742766412282147600,2.473147705078125,0.004886778071522713,0.012675080448389053,-0.037414394319057465
1742766412284558300,2.475558349609375,0.00519220158457756,0.00259610079228878,-0.0004581354442052543
1742766412286955500,2.47795556640625,0.005497625097632408,-0.017714571207761765,0.037567105144262314
1742766412289353000,2.48035302734375,0.005344913341104984,-0.01511846948415041,0.024433890357613564
1742766412291750100,2.482750244140625,0.003970507066696882,0.001374406274408102,-0.007635590620338917
1742766412294147300,2.485147216796875,0.00519220158457756,-0.004886778071522713,-0.014813045971095562
1742766412296544500,2.48754443359375,0.006413896102458239,-0.007330167107284069,-0.011300674639642239
1742766412298941700,2.489941650390625,0.0050394898280501366,0.008857285603880882,-0.013591351918876171
1742766412301339100,2.492339111328125,0.007635590620338917,-0.0012216945178806782,-0.0029015245381742716
1742766412303736300,2.494736328125,0.010231691412627697,-0.021226942539215088,0.010078979656100273
1742766412306133500,2.497133544921875,0.010078979656100273,-0.011147962883114815,0.0006108472589403391
1742766412308530700,2.49953076171875,0.008704573847353458,0.011300674639642239,0.004275931045413017
1742766412310928100,2.50192822265625,0.007635590620338917,0.006108472589403391,0.025808297097682953
1742766412313325300,2.5043251953125,0.0065666078589856625,-0.001374406274408102,0.030542362481355667
1742766412315722500,2.506722412109375,0.00519220158457756,0.007482878863811493,0.011453386396169662
1742766412318120000,2.509119873046875,0.007482878863811493,0.006413896102458239,-0.010078979656100273
1742766412320517000,2.51151708984375,0.007482878863811493,0.01252236869186163,-0.008857285603880882
1742766412322914300,2.513914306640625,0.008857285603880882,0.004886778071522713,0.017409147694706917
1742766412325311500,2.5163115234375,0.007788302376866341,-0.016187451779842377,0.01847812905907631
1742766412327709000,2.518708984375,0.004123218823224306,-0.01252236869186163,0.01252236869186163
1742766412330106000,2.521106201171875,0.002748812548816204,-0.00015271181473508477,0.014965757727622986
1742766412332490000,2.523489990234375,0.003970507066696882,-0.0050394898280501366,0.016187451779842377
1742766412334900500,2.525900390625,0.003970507066696882,-0.013744063675403595,-0.0018325417768210173
1742766412337298000,2.5282978515625,0.00519220158457756,-0.014813045971095562,-0.02214321307837963
1742766412339695000,2.530695068359375,0.0050394898280501366,0.007635590620338917,-0.011147962883114815
1742766412342092300,2.53309228515625,0.003970507066696882,0.012369656935334206,0.018630841746926308
1742766412344489700,2.53548974609375,0.005344913341104984,-0.010078979656100273,0.025655584409832954
1742766412346887000,2.537886962890625,0.006413896102458239,-0.007482878863811493,0.011300674639642239
1742766412349284000,2.5402841796875,0.0050394898280501366,0.01252236869186163,-0.01588202826678753
1742766412351681300,2.542681396484375,0.006261184345930815,0.008857285603880882,-0.008857285603880882
1742766412354065200,2.545065185546875,0.006413896102458239,-0.008704573847353458,0.009009997360408306
1742766412356476000,2.547475830078125,0.006413896102458239,-0.007482878863811493,0.009009997360408306
1742766412358873000,2.549873046875,0.010078979656100273,-0.011147962883114815,0.0065666078589856625
1742766412361270300,2.552270263671875,0.009009997360408306,-0.031153209507465363,0.0029015245381742716
1742766412363667500,2.55466748046875,0.010231691412627697,-0.02244863659143448,0.007635590620338917
1742766412366065000,2.55706494140625,0.008857285603880882,-0.0038177953101694584,0.01252236869186163
1742766412368462000,2.559462158203125,0.007635590620338917,0.0024433890357613564,0.005497625097632408
1742766412370859300,2.561859375,0.007635590620338917,-0.006108472589403391,0.0018325417768210173
1742766412373256700,2.564256591796875,0.008857285603880882,-0.010995250195264816,-0.01725643500685692
1742766412375654000,2.56665380859375,0.006261184345930815,0.00519220158457756,-0.03145863488316536
1742766412378051000,2.569051025390625,0.008704573847353458,0.01511846948415041,-0.00992626789957285
1742766412380448300,2.5714482421875,0.008857285603880882,0.0012216945178806782,0.025808297097682953
1742766412382845700,2.573845703125,0.005344913341104984,0.0035123717971146107,0.03649812191724777
1742766412385243000,2.576242919921875,0.003970507066696882,0.00992626789957285,0.017409147694706917
1742766412387640000,2.57864013671875,0.00519220158457756,-0.0012216945178806782,-0.0029015245381742716
1742766412390037200,2.581037353515625,0.0038177953101694584,-0.0010689827613532543,-0.02076880633831024
1742766412392434700,2.5834345703125,0.0050394898280501366,0.0065666078589856625,-0.037414394319057465
1742766412394832000,2.585831787109375,0.0050394898280501366,0.01252236869186163,-0.014813045971095562
1742766412397215700,2.5882158203125,0.005344913341104984,-0.007635590620338917,0.024433890357613564
1742766412399626200,2.590626220703125,0.0065666078589856625,-0.013896775431931019,0.028098974376916885
1742766412402023700,2.593023681640625,0.00519220158457756,0.008704573847353458,0.001985253533348441
1742766412404420900,2.5954208984375,0.006261184345930815,0.011300674639642239,-0.012369656935334206
1742766412406818000,2.597818115234375,0.006413896102458239,-0.014813045971095562,-0.005344913341104984
1742766412409215200,2.60021533203125,0.00519220158457756,-0.008551862090826035,-0.014813045971095562
1742766412411612700,2.60261279296875,0.0038177953101694584,0.008857285603880882,-0.01710372418165207
1742766412414009900,2.605009765625,0.010231691412627697,-0.011147962883114815,0.014965757727622986
1742766412416407000,2.607406982421875,0.01038440316915512,-0.02504473738372326,0.024433890357613564
1742766412418791000,2.609791015625,0.008857285603880882,-0.0024433890357613564,0.004275931045413017
1742766412421201700,2.61220166015625,0.00992626789957285,0.007635590620338917,-0.007635590620338917
1742766412423598800,2.614598876953125,0.00992626789957285,0.011300674639642239,0.006719320081174374
1742766412425996000,2.61699609375,0.006413896102458239,0.00992626789957285,0.018630841746926308
1742766412428393500,2.6193935546875,0.006413896102458239,0.006261184345930815,0.0030542362947016954
1742766412430790700,2.621790771484375,0.007635590620338917,-0.0012216945178806782,-0.006413896102458239
1742766412433187800,2.624187744140625,0.008857285603880882,-0.0022906772792339325,-0.008857285603880882
1742766412435585000,2.6265849609375,0.007482878863811493,0.016340164467692375,-0.003970507066696882
1742766412437982500,2.628982421875,0.00519220158457756,0.011147962883114815,0.017409147694706917
1742766412440379600,2.631379638671875,0.00916270911693573,-0.02626643143594265,0.03145863488316536
1742766412442776800,2.63377685546875,0.009009997360408306,-0.0261137206107378,0.008857285603880882
1742766412445174000,2.636174072265625,0.0050394898280501366,0.00259610079228878,-0.023212196305394173
1742766412447571500,2.638571533203125,0.0038177953101694584,0.020005248486995697,-0.011147962883114815
1742766412449968600,2.64096875,0.00519220158457756,0.008551862090826035,0.028098974376916885
1742766412452365800,2.64336572265625,0.007635590620338917,0.0010689827613532543,0.026877280324697495
1742766412454763000,2.645762939453125,0.0050394898280501366,0.016187451779842377,0.0007635590736754239
1742766412457160400,2.648160400390625,0.006261184345930815,0.014965757727622986,-0.006413896102458239
1742766412459557600,2.6505576171875,0.007635590620338917,0.006261184345930815,0.001985253533348441
1742766412461954800,2.652954833984375,0.0050394898280501366,0.00992626789957285,0.0007635590736754239
1742766412464352000,2.65535205078125,0.006261184345930815,0.016340164467692375,-0.00519220158457756
1742766412466749400,2.65774951171875,0.008857285603880882,0.007482878863811493,0.007941014133393764
1742766412469146600,2.660146728515625,0.011453386396169662,-0.008704573847353458,0.024433890357613564
1742766412471543800,2.662543701171875,0.010078979656100273,-0.007482878863811493,0.010231691412627697
1742766412473941000,2.66494091796875,0.0050394898280501366,0.01252236869186163,-0.008857285603880882
1742766412476338400,2.66733837890625,0.006261184345930815,0.014965757727622986,0.001985253533348441
1742766412478735600,2.669735595703125,0.008857285603880882,0.006108472589403391,0.0198525357991457
1742766412481132800,2.6721328125,0.008857285603880882,0.0038177953101694584,0.009009997360408306
1742766412483530200,2.6745302734375,0.010078979656100273,-0.0010689827613532543,-0.01252236869186163
1742766412485927400,2.676927490234375,0.011300674639642239,-0.008551862090826035,-0.01847812905907631
1742766412488324600,2.67932470703125,0.008857285603880882,-0.006108472589403391,-0.005344913341104984
1742766412490708500,2.68170849609375,0.006413896102458239,0.0036650835536420345,0.017409147694706917
1742766412493119200,2.684119140625,0.005344913341104984,0.0022906772792339325,0.03894151374697685
1742766412495516400,2.686516357421875,0.007788302376866341,-0.012675080448389053,0.04230117425322533
1742766412497900300,2.688900390625,0.008857285603880882,-0.00992626789957285,0.0006108472589403391
1742766412500310800,2.691310791015625,0.004886778071522713,0.007788302376866341,-0.04825693368911743
1742766412502708200,2.693708251953125,0.0036650835536420345,0.020157959312200546,-0.03023693896830082
1742766412505092000,2.696092041015625,0.007635590620338917,0.004886778071522713,0.023364907130599022
1742766412507502600,2.698502685546875,0.010231691412627697,-0.011453386396169662,0.0459662564098835
1742766412509899800,2.700899658203125,0.006413896102458239,-0.0012216945178806782,0.014965757727622986
1742766412512297200,2.703297119140625,0.007482878863811493,0.007482878863811493,-0.0029015245381742716
1742766412514694400,2.7056943359375,0.00519220158457756,-0.0024433890357613564,0.0065666078589856625
1742766412517091600,2.708091552734375,0.007788302376866341,-0.013744063675403595,0.009009997360408306
1742766412519475500,2.710475341796875,0.010078979656100273,-0.011147962883114815,-0.0006108472589403391
1742766412521886200,2.71288623046875,0.008857285603880882,-0.004886778071522713,0.0030542362947016954
1742766412524283400,2.715283447265625,0.010231691412627697,-0.017409147694706917,0.01252236869186163
1742766412526667300,2.717667236328125,0.011453386396169662,-0.02229592576622963,-0.0030542362947016954
1742766412529077800,2.720077880859375,0.010078979656100273,-0.0035123717971146107,-0.011300674639642239
1742766412531475200,2.72247509765625,0.00992626789957285,0.008857285603880882,-0.006413896102458239
1742766412533872400,2.724872314453125,0.008704573847353458,0.011300674639642239,0.001985253533348441
1742766412536269600,2.72726953125,0.010078979656100273,0.00259610079228878,0.0018325417768210173
1742766412538667000,2.7296669921875,0.011300674639642239,0.0038177953101694584,0.0007635590736754239
1742766412541064200,2.732064208984375,0.01252236869186163,-0.00992626789957285,0.004123218823224306
1742766412543461400,2.73446142578125,0.011453386396169662,-0.017409147694706917,0.0006108472589403391
1742766412545858600,2.736858642578125,0.007635590620338917,-0.004886778071522713,-0.0029015245381742716
1742766412548256000,2.739256103515625,0.008857285603880882,0.001374406274408102,-0.0004581354442052543
1742766412550653200,2.741653076171875,0.010231691412627697,-0.0198525357991457,0.0006108472589403391
1742766412553050400,2.74405029296875,0.009009997360408306,-0.032222192734479904,-0.006719320081174374
1742766412555447600,2.746447509765625,0.007635590620338917,-0.013438640162348747,-0.02214321307837963
1742766412557845000,2.748844970703125,0.007482878863811493,0.010078979656100273,-0.013591351918876171
1742766412560242200,2.7512421875,0.007482878863811493,0.01252236869186163,0.004275931045413017
1742766412562626000,2.7536259765625,0.010078979656100273,-0.0036650835536420345,0.010231691412627697
1742766412565036500,2.75603662109375,0.008857285603880882,-0.00992626789957285,-0.004123218823224306
1742766412567434000,2.75843408203125,0.00992626789957285,0.003970507066696882,-0.02076880633831024
1742766412569831200,2.7608310546875,0.007482878863811493,0.011300674639642239,-0.013591351918876171
1742766412572228400,2.763228271484375,0.00519220158457756,0.006261184345930815,0.010231691412627697
1742766412574625500,2.76562548828125,0.006413896102458239,0,-0.0004581354442052543
1742766412577023000,2.76802294921875,0.008704573847353458,0.00259610079228878,-0.016034740954637527
1742766412579420200,2.770420166015625,0.01252236869186163,-0.010995250195264816,-0.0065666078589856625
1742766412581817300,2.7728173828125,0.01252236869186163,-0.013591351918876171,-0.004123218823224306
1742766412584214500,2.775214599609375,0.008704573847353458,0.007635590620338917,-0.0029015245381742716
1742766412586612000,2.777612060546875,0.010078979656100273,0.00259610079228878,0.005497625097632408
1742766412589009200,2.780009033203125,0.011300674639642239,0.00259610079228878,0.010231691412627697
1742766412591406300,2.78240625,0.011300674639642239,0,0.004275931045413017
1742766412593803800,2.7848037109375,0.011300674639642239,-0.0010689827613532543,-0.01252236869186163
1742766412596201000,2.787200927734375,0.00992626789957285,0.00030542362947016954,-0.023212196305394173
1742766412598598100,2.78959814453125,0.00992626789957285,0.00015271181473508477,-0.01725643500685692
1742766412600995300,2.791995361328125,0.007635590620338917,0.006261184345930815,-0.0004581354442052543
1742766412603392500,2.794392578125,0.006413896102458239,0.016034740954637527,0.02229592576622963
1742766412605790000,2.7967900390625,0.005344913341104984,0.0010689827613532543,0.03649812191724777
1742766412608187100,2.799187255859375,0.006413896102458239,0.0036650835536420345,0.010231691412627697
1742766412610584300,2.801584228515625,0.0050394898280501366,0.005344913341104984,-0.04230117425322533
1742766412612981800,2.803981689453125,0.006261184345930815,-0.007024743594229221,-0.05665608495473862
1742766412615379000,2.80637890625,0.00519220158457756,-0.012369656935334206,-0.01725643500685692
1742766412617776000,2.808776123046875,0.006413896102458239,-0.00015271181473508477,0.024586603045463562
1742766412620160000,2.811159912109375,0.0065666078589856625,0.0010689827613532543,0.04367557913064957
1742766412622570800,2.81357080078125,0.007788302376866341,-0.00992626789957285,0.011300674639642239
1742766412624968000,2.815968017578125,0.006413896102458239,-0.013438640162348747,-0.040010496973991394
1742766412627365000,2.818365234375,0.007482878863811493,-0.004581354558467865,-0.06139015033841133
1742766412629762300,2.82076220703125,0.0050394898280501366,0.009009997360408306,-0.03512371703982353
1742766412632159700,2.82315966796875,0.008857285603880882,-0.0024433890357613564,0.0065666078589856625
1742766412634557000,2.825556884765625,0.012675080448389053,-0.020005248486995697,0.01969982497394085
1742766412636954000,2.8279541015625,0.010231691412627697,-0.012369656935334206,0.005344913341104984
1742766412639351600,2.8303515625,0.010078979656100273,-0.008551862090826035,-0.008857285603880882
1742766412641748700,2.832748779296875,0.010078979656100273,-0.0035123717971146107,-0.014813045971095562
1742766412644146000,2.83514599609375,0.008704573847353458,0.016340164467692375,-0.014660334214568138
1742766412646543000,2.837543212890625,0.00992626789957285,0.006413896102458239,-0.011147962883114815
1742766412648940500,2.8399404296875,0.011453386396169662,-0.0198525357991457,-0.007788302376866341
1742766412651337700,2.842337646484375,0.010231691412627697,-0.028404397889971733,-0.02214321307837963
1742766412653735000,2.84473486328125,0.008704573847353458,0.003970507066696882,-0.027946261689066887
1742766412656132000,2.847132080078125,0.008704573847353458,0.02870982140302658,0.007941014133393764
1742766412658529300,2.849529296875,0.008857285603880882,0.0036650835536420345,0.030542362481355667
1742766412660926700,2.8519267578125,0.007788302376866341,-0.016187451779842377,0.0018325417768210173
1742766412663324000,2.854323974609375,0.0050394898280501366,-0.0021379655227065086,-0.039857782423496246
1742766412665721000,2.85672119140625,0.0036650835536420345,0.014049487188458443,-0.050547610968351364
1742766412668118500,2.859118408203125,0.0050394898280501366,0.011300674639642239,-0.013591351918876171
1742766412670515700,2.861515625,0.007635590620338917,0.012369656935334206,0.017409147694706917
1742766412672913000,2.863912841796875,0.0038177953101694584,0.014965757727622986,0.011453386396169662
1742766412675310000,2.86631005859375,0.0050394898280501366,0.006261184345930815,-0.00519220158457756
1742766412677707500,2.86870751953125,0.006413896102458239,-0.006108472589403391,-0.01725643500685692
1742766412680104700,2.871104736328125,0.0038177953101694584,0.018783552572131157,-0.021837789565324783
1742766412682502000,2.873501953125,0.0050394898280501366,0.017561858519911766,-0.012369656935334206
1742766412684899000,2.875899169921875,0.007635590620338917,-0.014813045971095562,-0.0065666078589856625
1742766412687296500,2.878296630859375,0.009009997360408306,-0.02229592576622963,-0.01252236869186163
1742766412689693700,2.880693603515625,0.008857285603880882,-0.004886778071522713,-0.014813045971095562
1742766412692091000,2.8830908203125,0.008857285603880882,-0.006108472589403391,-0.007635590620338917
1742766412694488300,2.88548828125,0.011300674639642239,-0.007330167107284069,0.0006108472589403391
1742766412696885500,2.887885498046875,0.007635590620338917,0.001374406274408102,-0.0029015245381742716
1742766412699282700,2.89028271484375,0.007482878863811493,0.01252236869186163,-0.006413896102458239
1742766412701679900,2.892679931640625,0.0050394898280501366,0.01252236869186163,-0.002748812548816204
